,ID,trial,chooseDes,whichWorld,chooseTV,desWorld,whatIsDes,seqLength,desCount,desProp,RT.lev,RT.raw,RT.log,aniFlagCount,outcomeDesSeq,correct,desPropC,evidForChoice,undesCount,desDiff,diffForChoice,itemsForChoiceCount,chooseDes.m,desWorldC,chooseDesC,chooseDesF,desWorldF,RTq5,timingFlag,timingRelative
1,1,X1,1,0,0,1,ph,4,4,1,1771,2177,7.685703061,2,1111,1,0.5,1,0,4,4,4,1,1,1,chose desirable,desirable fac.,"(2.1e+03,3.34e+03]",FALSE,527
2,2,X1,0,0,1,1,ph,10,4,0.4,1609,5441,8.601718146,0,1000111000,0,-0.1,0.6,6,-2,2,6,0,1,-1,chose undesirable,desirable fac.,"(4.98e+03,8.01e+03]",FALSE,491
4,4,X1,0,1,1,0,ph,11,5,0.454545455,1705,5907,8.683893367,0,11011001,1,-0.045454545,0.545454545,6,-1,1,6,1,-1,-1,chose undesirable,undesirable fac.,"(4.98e+03,8.01e+03]",FALSE,407
6,6,X1,1,1,1,1,tv,9,6,0.666666667,3518,4447,8.399984991,0,10111011,1,0.166666667,0.666666667,3,3,3,6,1,1,1,chose desirable,desirable fac.,"(3.34e+03,4.98e+03]",FALSE,47
7,7,X1,0,0,0,0,tv,7,2,0.285714286,2542,3400,8.131530711,1,1010,1,-0.214285714,0.714285714,5,-3,3,5,1,-1,-1,chose undesirable,undesirable fac.,"(3.34e+03,4.98e+03]",FALSE,100
8,8,X1,0,0,1,1,ph,5,1,0.2,2487,2440,7.799753318,0,1,0,-0.3,0.8,4,-3,3,4,0,1,-1,chose undesirable,desirable fac.,"(2.1e+03,3.34e+03]",FALSE,240
9,9,X1,1,1,1,1,tv,10,9,0.9,1681,5071,8.531293316,3,1111111110,1,0.4,0.9,1,8,8,9,1,1,1,chose desirable,desirable fac.,"(4.98e+03,8.01e+03]",FALSE,121
10,10,X1,1,0,0,1,ph,8,5,0.625,1449,3872,8.261526448,0,10011110,1,0.125,0.625,3,2,2,5,1,1,1,chose desirable,desirable fac.,"(3.34e+03,4.98e+03]",FALSE,22
11,11,X1,1,1,1,1,tv,6,5,0.833333333,750,2793,7.934871566,0,110111,1,0.333333333,0.833333333,1,4,4,5,1,1,1,chose desirable,desirable fac.,"(2.1e+03,3.34e+03]",FALSE,43
12,12,X1,1,1,0,0,ph,3,2,0.666666667,1195,1566,7.356279877,0,110,0,0.166666667,0.666666667,1,1,1,2,0,-1,1,chose desirable,undesirable fac.,"[7,2.1e+03]",FALSE,466
13,13,X1,0,1,0,1,tv,7,1,0.142857143,2711,3559,8.177234886,0,1000000,0,-0.357142857,0.857142857,6,-5,5,6,0,1,-1,chose undesirable,desirable fac.,"(3.34e+03,4.98e+03]",FALSE,259
15,15,X1,0,1,1,0,ph,6,1,0.166666667,2854,3159,8.058010801,3,10000,1,-0.333333333,0.833333333,5,-4,4,5,1,-1,-1,chose undesirable,undesirable fac.,"(2.1e+03,3.34e+03]",FALSE,409
18,18,X1,1,0,0,1,ph,5,1,0.2,2239,2712,7.905441649,2,10000,1,-0.3,0.2,4,-3,-3,1,1,1,1,chose desirable,desirable fac.,"(2.1e+03,3.34e+03]",FALSE,512
20,20,X1,1,0,0,1,ph,6,4,0.666666667,1902,3184,8.065893547,0,11110,1,0.166666667,0.666666667,2,2,2,4,1,1,1,chose desirable,desirable fac.,"(2.1e+03,3.34e+03]",FALSE,434
21,21,X1,0,1,0,1,tv,7,2,0.285714286,1282,3725,8.222822131,0,100001,0,-0.214285714,0.714285714,5,-3,3,5,0,1,-1,chose undesirable,desirable fac.,"(3.34e+03,4.98e+03]",FALSE,425
22,22,X1,0,1,0,1,tv,4,3,0.75,2028,2003,7.602401336,0,1101,0,0.25,0.25,1,2,-2,1,0,1,-1,chose undesirable,desirable fac.,"[7,2.1e+03]",FALSE,353
23,23,X1,1,1,1,1,tv,5,3,0.6,1807,2497,7.82284529,0,1110,1,0.1,0.6,2,1,1,3,1,1,1,chose desirable,desirable fac.,"(2.1e+03,3.34e+03]",FALSE,297
24,24,X1,1,0,1,0,tv,5,4,0.8,2297,2721,7.908754739,0,11011,0,0.3,0.8,1,3,3,4,0,-1,1,chose desirable,undesirable fac.,"(2.1e+03,3.34e+03]",FALSE,521
26,26,X1,1,1,1,1,tv,49,25,0.510204082,5595,26753,10.1944019,2,1.10E+48,1,0.010204082,0.510204082,24,1,1,25,1,1,1,chose desirable,desirable fac.,"(8.01e+03,8.89e+04]",FALSE,353
27,27,X1,0,0,0,0,tv,7,2,0.285714286,2150,3610,8.191463051,0,1100000,1,-0.214285714,0.714285714,5,-3,3,5,1,-1,-1,chose undesirable,undesirable fac.,"(3.34e+03,4.98e+03]",FALSE,310
28,28,X1,1,1,1,1,tv,48,24,0.5,2922,26285,10.17675371,0,1.10E+47,1,0,0.5,24,0,0,24,1,1,1,chose desirable,desirable fac.,"(8.01e+03,8.89e+04]",FALSE,435
29,29,X1,0,0,1,1,ph,5,3,0.6,1466,2207,7.699389406,0,10011,0,0.1,0.4,2,1,-1,2,0,1,-1,chose undesirable,desirable fac.,"(2.1e+03,3.34e+03]",FALSE,7
30,30,X1,0,1,1,0,ph,9,2,0.222222222,1652,4526,8.417593826,0,10000001,1,-0.277777778,0.777777778,7,-5,5,7,1,-1,-1,chose undesirable,undesirable fac.,"(3.34e+03,4.98e+03]",FALSE,126
31,31,X1,0,0,0,0,tv,7,3,0.428571429,2227,3849,8.255568653,0,11100,1,-0.071428571,0.571428571,4,-1,1,4,1,-1,-1,chose undesirable,undesirable fac.,"(3.34e+03,4.98e+03]",FALSE,549
32,32,X1,1,1,1,1,tv,14,9,0.642857143,2015,7663,8.944158831,0,1.00E+12,1,0.142857143,0.642857143,5,4,4,9,1,1,1,chose desirable,desirable fac.,"(4.98e+03,8.01e+03]",FALSE,513
33,33,X1,1,0,1,0,tv,22,12,0.545454545,4008,11767,9.373054282,0,1.11E+21,0,0.045454545,0.545454545,10,2,2,12,0,-1,1,chose desirable,undesirable fac.,"(8.01e+03,8.89e+04]",FALSE,217
34,34,X1,1,0,0,1,ph,8,5,0.625,1295,3872,8.261526448,0,11001110,1,0.125,0.625,3,2,2,5,1,1,1,chose desirable,desirable fac.,"(3.34e+03,4.98e+03]",FALSE,22
35,35,X1,1,1,0,0,ph,13,7,0.538461538,595,6929,8.843470782,0,1.10E+12,0,0.038461538,0.538461538,6,1,1,7,0,-1,1,chose desirable,undesirable fac.,"(4.98e+03,8.01e+03]",FALSE,329
36,36,X1,1,0,0,1,ph,8,5,0.625,1539,4284,8.362642432,0,11010110,1,0.125,0.625,3,2,2,5,1,1,1,chose desirable,desirable fac.,"(3.34e+03,4.98e+03]",FALSE,434
37,37,X1,0,0,0,0,tv,5,1,0.2,2413,2360,7.766416898,0,1,1,-0.3,0.8,4,-3,3,4,1,-1,-1,chose undesirable,undesirable fac.,"(2.1e+03,3.34e+03]",FALSE,160
38,38,X1,0,0,0,0,tv,10,5,0.5,2623,5107,8.538367427,2,1000101011,1,0,0.5,5,0,0,5,1,-1,-1,chose undesirable,undesirable fac.,"(4.98e+03,8.01e+03]",FALSE,157
39,39,X1,1,0,0,1,ph,7,5,0.714285714,2359,3791,8.240385116,0,111011,1,0.214285714,0.714285714,2,3,3,5,1,1,1,chose desirable,desirable fac.,"(3.34e+03,4.98e+03]",FALSE,491
40,40,X1,1,0,0,1,ph,12,10,0.833333333,2238,6129,8.720786883,0,1.11E+11,1,0.333333333,0.833333333,2,8,8,10,1,1,1,chose desirable,desirable fac.,"(4.98e+03,8.01e+03]",FALSE,79
41,41,X1,1,1,1,1,tv,10,6,0.6,1168,5311,8.57753542,0,11110110,1,0.1,0.6,4,2,2,6,1,1,1,chose desirable,desirable fac.,"(4.98e+03,8.01e+03]",FALSE,361
42,42,X1,1,0,0,1,ph,6,4,0.666666667,879,2834,7.94944442,0,11011,1,0.166666667,0.666666667,2,2,2,4,1,1,1,chose desirable,desirable fac.,"(2.1e+03,3.34e+03]",FALSE,84
43,43,X1,0,1,1,0,ph,8,3,0.375,1931,3915,8.272570608,0,110001,1,-0.125,0.625,5,-2,2,5,1,-1,-1,chose undesirable,undesirable fac.,"(3.34e+03,4.98e+03]",FALSE,65
44,44,X1,0,0,0,0,tv,7,4,0.571428571,965,3664,8.206310726,0,1100011,1,0.071428571,0.428571429,3,1,-1,3,1,-1,-1,chose undesirable,undesirable fac.,"(3.34e+03,4.98e+03]",FALSE,364
45,45,X1,1,1,0,0,ph,7,3,0.428571429,1327,3699,8.215817792,1,1010010,0,-0.071428571,0.428571429,4,-1,-1,3,0,-1,1,chose desirable,undesirable fac.,"(3.34e+03,4.98e+03]",FALSE,399
46,46,X1,1,1,1,1,tv,28,17,0.607142857,3066,15227,9.630825447,1,1.11E+26,1,0.107142857,0.607142857,11,6,6,17,1,1,1,chose desirable,desirable fac.,"(8.01e+03,8.89e+04]",FALSE,377
47,47,X1,1,0,0,1,ph,6,5,0.833333333,1752,3283,8.096512918,0,11111,1,0.333333333,0.833333333,1,4,4,5,1,1,1,chose desirable,desirable fac.,"(2.1e+03,3.34e+03]",FALSE,533
48,48,X1,1,1,1,1,tv,10,6,0.6,1281,5056,8.528330936,0,1111001100,1,0.1,0.6,4,2,2,6,1,1,1,chose desirable,desirable fac.,"(4.98e+03,8.01e+03]",FALSE,106
49,49,X1,0,1,1,0,ph,8,5,0.625,1112,3911,8.271548375,0,110111,1,0.125,0.375,3,2,-2,3,1,-1,-1,chose undesirable,undesirable fac.,"(3.34e+03,4.98e+03]",FALSE,61
50,50,X1,0,0,1,1,ph,23,11,0.47826087,4678,12162,9.406071616,0,1.11E+22,0,-0.02173913,0.52173913,12,-1,1,12,0,1,-1,chose undesirable,desirable fac.,"(8.01e+03,8.89e+04]",FALSE,62
51,51,X1,1,1,1,1,tv,4,3,0.75,1319,2000,7.60090246,0,1110,1,0.25,0.75,1,2,2,3,1,1,1,chose desirable,desirable fac.,"[7,2.1e+03]",FALSE,350
52,52,X1,1,1,1,1,tv,18,12,0.666666667,2583,9646,9.174298601,10,1.01E+17,1,0.166666667,0.666666667,6,6,6,12,1,1,1,chose desirable,desirable fac.,"(8.01e+03,8.89e+04]",FALSE,296
53,53,X1,1,0,1,0,tv,8,6,0.75,1746,4299,8.366137716,0,10110111,0,0.25,0.75,2,4,4,6,0,-1,1,chose desirable,undesirable fac.,"(3.34e+03,4.98e+03]",FALSE,449
55,55,X1,1,1,1,1,tv,5,3,0.6,1478,2656,7.884576511,0,11010,1,0.1,0.6,2,1,1,3,1,1,1,chose desirable,desirable fac.,"(2.1e+03,3.34e+03]",FALSE,456
56,56,X1,0,0,0,0,tv,13,5,0.384615385,119,6912,8.84101431,0,1.11E+12,1,-0.115384615,0.615384615,8,-3,3,8,1,-1,-1,chose undesirable,undesirable fac.,"(4.98e+03,8.01e+03]",FALSE,312
57,57,X1,0,1,1,0,ph,39,15,0.384615385,2271,21249,9.964065114,0,1.01E+37,1,-0.115384615,0.615384615,24,-9,9,24,1,-1,-1,chose undesirable,undesirable fac.,"(8.01e+03,8.89e+04]",FALSE,349
58,58,X1,0,0,0,0,tv,4,0,0,1673,1878,7.53796266,0,0,1,-0.5,1,4,-4,4,4,1,-1,-1,chose undesirable,undesirable fac.,"[7,2.1e+03]",FALSE,228
59,59,X1,0,0,0,0,tv,10,3,0.3,2174,5353,8.58541243,0,1010010000,1,-0.2,0.7,7,-4,4,7,1,-1,-1,chose undesirable,undesirable fac.,"(4.98e+03,8.01e+03]",FALSE,403
60,60,X1,0,0,0,0,tv,9,1,0.111111111,2335,4432,8.396606228,0,10,1,-0.388888889,0.888888889,8,-7,7,8,1,-1,-1,chose undesirable,undesirable fac.,"(3.34e+03,4.98e+03]",FALSE,32
62,62,X1,1,0,0,1,ph,15,11,0.733333333,2265,8174,9.008713664,0,1.01E+14,1,0.233333333,0.733333333,4,7,7,11,1,1,1,chose desirable,desirable fac.,"(8.01e+03,8.89e+04]",FALSE,474
63,63,X1,1,0,0,1,ph,9,5,0.555555556,3190,4792,8.47470314,0,111000110,1,0.055555556,0.555555556,4,1,1,5,1,1,1,chose desirable,desirable fac.,"(3.34e+03,4.98e+03]",FALSE,392
64,64,X1,1,0,1,0,tv,10,7,0.7,3421,5116,8.540128163,0,111011110,0,0.2,0.7,3,4,4,7,0,-1,1,chose desirable,undesirable fac.,"(4.98e+03,8.01e+03]",FALSE,166
65,65,X1,1,0,1,0,tv,11,6,0.545454545,371,6002,8.699848026,0,10010101110,0,0.045454545,0.545454545,5,1,1,6,0,-1,1,chose desirable,undesirable fac.,"(4.98e+03,8.01e+03]",FALSE,502
66,66,X1,0,1,0,1,tv,14,7,0.5,1514,7433,8.913684825,0,1.10E+12,0,0,0.5,7,0,0,7,0,1,-1,chose undesirable,desirable fac.,"(4.98e+03,8.01e+03]",FALSE,283
67,67,X1,1,0,0,1,ph,13,9,0.692307692,2082,6724,8.813438495,0,1.01E+11,1,0.192307692,0.692307692,4,5,5,9,1,1,1,chose desirable,desirable fac.,"(4.98e+03,8.01e+03]",FALSE,124
68,68,X1,1,0,0,1,ph,5,4,0.8,1782,2688,7.896552702,0,11011,1,0.3,0.8,1,3,3,4,1,1,1,chose desirable,desirable fac.,"(2.1e+03,3.34e+03]",FALSE,488
69,69,X1,0,0,0,0,tv,43,20,0.465116279,14525,23172,10.05069993,0,1.10E+42,1,-0.034883721,0.534883721,23,-3,3,23,1,-1,-1,chose undesirable,undesirable fac.,"(8.01e+03,8.89e+04]",FALSE,72
70,70,X1,1,1,1,1,tv,15,10,0.666666667,1792,8151,9.005895898,0,1.11E+13,1,0.166666667,0.666666667,5,5,5,10,1,1,1,chose desirable,desirable fac.,"(8.01e+03,8.89e+04]",FALSE,451
71,71,X1,1,0,0,1,ph,10,7,0.7,2105,5245,8.565030521,0,1101110011,1,0.2,0.7,3,4,4,7,1,1,1,chose desirable,desirable fac.,"(4.98e+03,8.01e+03]",FALSE,295
72,72,X1,0,0,0,0,tv,12,2,0.166666667,1298,6374,8.759982495,0,100010,1,-0.333333333,0.833333333,10,-8,8,10,1,-1,-1,chose undesirable,undesirable fac.,"(4.98e+03,8.01e+03]",FALSE,324
73,73,X1,1,0,0,1,ph,5,5,1,3018,2232,7.710653324,0,11111,1,0.5,1,0,5,5,5,1,1,1,chose desirable,desirable fac.,"(2.1e+03,3.34e+03]",FALSE,32
74,74,X1,0,1,1,0,ph,8,1,0.125,2583,4110,8.321178307,0,1,1,-0.375,0.875,7,-6,6,7,1,-1,-1,chose undesirable,undesirable fac.,"(3.34e+03,4.98e+03]",FALSE,260
75,75,X1,1,0,1,0,tv,7,4,0.571428571,1512,3832,8.251142139,0,110110,0,0.071428571,0.571428571,3,1,1,4,0,-1,1,chose desirable,undesirable fac.,"(3.34e+03,4.98e+03]",FALSE,532
76,76,X1,1,0,0,1,ph,15,9,0.6,2583,7752,8.955706154,0,1.11E+14,1,0.1,0.6,6,3,3,9,1,1,1,chose desirable,desirable fac.,"(4.98e+03,8.01e+03]",FALSE,52
77,77,X1,0,0,0,0,tv,7,1,0.142857143,1278,3713,8.219595454,0,100000,1,-0.357142857,0.857142857,6,-5,5,6,1,-1,-1,chose undesirable,undesirable fac.,"(3.34e+03,4.98e+03]",FALSE,413
78,78,X1,1,0,0,1,ph,7,5,0.714285714,766,3537,8.171034189,0,1011101,1,0.214285714,0.714285714,2,3,3,5,1,1,1,chose desirable,desirable fac.,"(3.34e+03,4.98e+03]",FALSE,237
79,79,X1,0,1,1,0,ph,3,0,0,1598,1505,7.316548177,0,0,1,-0.5,1,3,-3,3,3,1,-1,-1,chose undesirable,undesirable fac.,"[7,2.1e+03]",FALSE,405
80,80,X1,0,1,1,0,ph,21,8,0.380952381,4230,11364,9.338205743,0,1.01E+20,1,-0.119047619,0.619047619,13,-5,5,13,1,-1,-1,chose undesirable,undesirable fac.,"(8.01e+03,8.89e+04]",FALSE,364
81,81,X1,0,1,1,0,ph,59,23,0.389830508,13575,32423,10.38662333,2,1.01E+58,1,-0.110169492,0.610169492,36,-13,13,36,1,-1,-1,chose undesirable,undesirable fac.,"(8.01e+03,8.89e+04]",FALSE,523
82,82,X1,1,1,0,0,ph,7,4,0.571428571,1866,3813,8.24617156,0,1010110,0,0.071428571,0.571428571,3,1,1,4,0,-1,1,chose desirable,undesirable fac.,"(3.34e+03,4.98e+03]",FALSE,513
83,83,X1,0,1,1,0,ph,12,4,0.333333333,9701,6468,8.774622221,0,10101010000,1,-0.166666667,0.666666667,8,-4,4,8,1,-1,-1,chose undesirable,undesirable fac.,"(4.98e+03,8.01e+03]",FALSE,418
85,85,X1,1,0,0,1,ph,34,18,0.529411765,1136,18464,9.823578169,0,1.00E+32,1,0.029411765,0.529411765,16,2,2,18,1,1,1,chose desirable,desirable fac.,"(8.01e+03,8.89e+04]",FALSE,314
86,86,X1,1,1,1,1,tv,4,3,0.75,1248,2167,7.681099002,0,111,1,0.25,0.75,1,2,2,3,1,1,1,chose desirable,desirable fac.,"(2.1e+03,3.34e+03]",FALSE,517
87,87,X1,0,1,0,1,tv,3,1,0.333333333,10898,1558,7.351158226,0,1,0,-0.166666667,0.666666667,2,-1,1,2,0,1,-1,chose undesirable,desirable fac.,"[7,2.1e+03]",FALSE,458
88,88,X1,0,0,0,0,tv,5,1,0.2,584,2398,7.782390336,0,100,1,-0.3,0.8,4,-3,3,4,1,-1,-1,chose undesirable,undesirable fac.,"(2.1e+03,3.34e+03]",FALSE,198
90,90,X1,1,0,0,1,ph,5,4,0.8,1280,2626,7.873217055,0,1111,1,0.3,0.8,1,3,3,4,1,1,1,chose desirable,desirable fac.,"(2.1e+03,3.34e+03]",FALSE,426
91,91,X1,0,0,0,0,tv,11,4,0.363636364,9415,5561,8.623533227,0,1110000010,1,-0.136363636,0.636363636,7,-3,3,7,1,-1,-1,chose undesirable,undesirable fac.,"(4.98e+03,8.01e+03]",FALSE,61
92,92,X1,0,0,0,0,tv,14,5,0.357142857,3199,7321,8.89850221,0,1.00E+12,1,-0.142857143,0.642857143,9,-4,4,9,1,-1,-1,chose undesirable,undesirable fac.,"(4.98e+03,8.01e+03]",FALSE,171
93,93,X1,0,0,1,1,ph,11,3,0.272727273,2866,5575,8.626047596,0,1110000000,0,-0.227272727,0.727272727,8,-5,5,8,0,1,-1,chose undesirable,desirable fac.,"(4.98e+03,8.01e+03]",FALSE,75
94,94,X1,1,1,1,1,tv,20,10,0.5,2139,10638,9.272187775,0,1.11E+17,1,0,0.5,10,0,0,10,1,1,1,chose desirable,desirable fac.,"(8.01e+03,8.89e+04]",FALSE,188
95,95,X1,1,1,1,1,tv,14,6,0.428571429,918,7473,8.919051804,0,1.11E+12,1,-0.071428571,0.428571429,8,-2,-2,6,1,1,1,chose desirable,desirable fac.,"(4.98e+03,8.01e+03]",FALSE,323
96,96,X1,0,1,1,0,ph,32,14,0.4375,1887,17232,9.754523399,0,1.10E+30,1,-0.0625,0.5625,18,-4,4,18,1,-1,-1,chose undesirable,undesirable fac.,"(8.01e+03,8.89e+04]",FALSE,182
98,98,X1,0,1,1,0,ph,3,1,0.333333333,3134,1586,7.368970402,0,1,1,-0.166666667,0.666666667,2,-1,1,2,1,-1,-1,chose undesirable,undesirable fac.,"[7,2.1e+03]",FALSE,486
99,99,X1,1,0,1,0,tv,22,12,0.545454545,3903,11950,9.388486557,0,1.00E+21,0,0.045454545,0.545454545,10,2,2,12,0,-1,1,chose desirable,undesirable fac.,"(8.01e+03,8.89e+04]",FALSE,400
100,1,X2,1,1,0,0,ph,5,3,0.6,1447,2725,7.910223707,2,1011,0,0.1,0.6,2,1,1,3,0,-1,1,chose desirable,undesirable fac.,"(2.1e+03,3.34e+03]",FALSE,525
101,2,X2,1,0,0,1,ph,5,5,1,735,2597,7.862112212,0,11111,1,0.5,1,0,5,5,5,1,1,1,chose desirable,desirable fac.,"(2.1e+03,3.34e+03]",FALSE,397
103,4,X2,1,0,0,1,ph,10,5,0.5,785,5414,8.59674347,0,110010110,1,0,0.5,5,0,0,5,1,1,1,chose desirable,desirable fac.,"(4.98e+03,8.01e+03]",FALSE,464
105,6,X2,1,0,1,0,tv,6,4,0.666666667,2342,2943,7.987184748,0,11110,0,0.166666667,0.666666667,2,2,2,4,0,-1,1,chose desirable,undesirable fac.,"(2.1e+03,3.34e+03]",FALSE,193
106,7,X2,1,0,1,0,tv,7,5,0.714285714,2518,3768,8.234299636,0,110111,0,0.214285714,0.714285714,2,3,3,5,0,-1,1,chose desirable,undesirable fac.,"(3.34e+03,4.98e+03]",FALSE,468
107,8,X2,0,1,1,0,ph,5,0,0,1614,2721,7.908754739,0,0,1,-0.5,1,5,-5,5,5,1,-1,-1,chose undesirable,undesirable fac.,"(2.1e+03,3.34e+03]",FALSE,521
108,9,X2,1,1,1,1,tv,26,15,0.576923077,1041,14012,9.547669384,10,1.01E+25,1,0.076923077,0.576923077,11,4,4,15,1,1,1,chose desirable,desirable fac.,"(8.01e+03,8.89e+04]",FALSE,262
109,10,X2,1,0,0,1,ph,11,7,0.636363636,1232,5814,8.668024081,0,1011001111,1,0.136363636,0.636363636,4,3,3,7,1,1,1,chose desirable,desirable fac.,"(4.98e+03,8.01e+03]",FALSE,314
110,11,X2,1,1,1,1,tv,4,4,1,509,2025,7.61332498,0,1111,1,0.5,1,0,4,4,4,1,1,1,chose desirable,desirable fac.,"[7,2.1e+03]",FALSE,375
111,12,X2,1,1,0,0,ph,4,3,0.75,434,1781,7.484930283,0,111,0,0.25,0.75,1,2,2,3,0,-1,1,chose desirable,undesirable fac.,"[7,2.1e+03]",FALSE,131
112,13,X2,1,1,1,1,tv,7,5,0.714285714,2132,3768,8.234299636,0,1110011,1,0.214285714,0.714285714,2,3,3,5,1,1,1,chose desirable,desirable fac.,"(3.34e+03,4.98e+03]",FALSE,468
114,15,X2,1,0,0,1,ph,4,4,1,1089,1967,7.584264818,2,1111,1,0.5,1,0,4,4,4,1,1,1,chose desirable,desirable fac.,"[7,2.1e+03]",FALSE,317
117,18,X2,1,1,0,0,ph,9,6,0.666666667,2342,4792,8.47470314,4,100111011,0,0.166666667,0.666666667,3,3,3,6,0,-1,1,chose desirable,undesirable fac.,"(3.34e+03,4.98e+03]",FALSE,392
119,20,X2,0,1,1,0,ph,6,1,0.166666667,1368,3096,8.037866235,0,10000,1,-0.333333333,0.833333333,5,-4,4,5,1,-1,-1,chose undesirable,undesirable fac.,"(2.1e+03,3.34e+03]",FALSE,346
120,21,X2,1,1,1,1,tv,8,5,0.625,1090,4206,8.344267356,0,10011110,1,0.125,0.625,3,2,2,5,1,1,1,chose desirable,desirable fac.,"(3.34e+03,4.98e+03]",FALSE,356
121,22,X2,0,1,0,1,tv,5,2,0.4,722,2594,7.860956365,0,11000,0,-0.1,0.6,3,-1,1,3,0,1,-1,chose undesirable,desirable fac.,"(2.1e+03,3.34e+03]",FALSE,394
122,23,X2,0,0,0,0,tv,6,1,0.166666667,1399,2760,7.922985959,0,1000,1,-0.333333333,0.833333333,5,-4,4,5,1,-1,-1,chose undesirable,undesirable fac.,"(2.1e+03,3.34e+03]",FALSE,10
123,24,X2,0,1,0,1,tv,7,2,0.285714286,1347,3479,8.154500175,0,1000100,0,-0.214285714,0.714285714,5,-3,3,5,0,1,-1,chose undesirable,desirable fac.,"(3.34e+03,4.98e+03]",FALSE,179
125,26,X2,1,1,1,1,tv,16,11,0.6875,2338,8568,9.055789612,0,1.01E+15,1,0.1875,0.6875,5,6,6,11,1,1,1,chose desirable,desirable fac.,"(8.01e+03,8.89e+04]",FALSE,318
126,27,X2,0,0,0,0,tv,6,2,0.333333333,1746,2851,7.955425089,0,10001,1,-0.166666667,0.666666667,4,-2,2,4,1,-1,-1,chose undesirable,undesirable fac.,"(2.1e+03,3.34e+03]",FALSE,101
127,28,X2,0,1,0,1,tv,22,9,0.409090909,2350,11701,9.367429587,0,1.01E+21,0,-0.090909091,0.590909091,13,-4,4,13,0,1,-1,chose undesirable,desirable fac.,"(8.01e+03,8.89e+04]",FALSE,151
128,29,X2,1,0,0,1,ph,7,4,0.571428571,826,3329,8.110427238,0,101101,1,0.071428571,0.571428571,3,1,1,4,1,1,1,chose desirable,desirable fac.,"(2.1e+03,3.34e+03]",FALSE,29
129,30,X2,0,1,1,0,ph,16,6,0.375,881,8287,9.022443301,0,1.01E+15,1,-0.125,0.625,10,-4,4,10,1,-1,-1,chose undesirable,undesirable fac.,"(8.01e+03,8.89e+04]",FALSE,37
130,31,X2,1,1,1,1,tv,7,3,0.428571429,1188,3655,8.203851372,0,11001,1,-0.071428571,0.428571429,4,-1,-1,3,1,1,1,chose desirable,desirable fac.,"(3.34e+03,4.98e+03]",FALSE,355
131,32,X2,0,0,0,0,tv,19,7,0.368421053,1359,10319,9.241742135,0,1.00E+15,1,-0.131578947,0.631578947,12,-5,5,12,1,-1,-1,chose undesirable,undesirable fac.,"(8.01e+03,8.89e+04]",FALSE,419
132,33,X2,1,1,1,1,tv,30,14,0.466666667,1263,16255,9.696155833,0,1.11E+29,1,-0.033333333,0.466666667,16,-2,-2,14,1,1,1,chose desirable,desirable fac.,"(8.01e+03,8.89e+04]",FALSE,305
133,34,X2,1,0,0,1,ph,5,5,1,846,2337,7.756623335,0,11111,1,0.5,1,0,5,5,5,1,1,1,chose desirable,desirable fac.,"(2.1e+03,3.34e+03]",FALSE,137
134,35,X2,1,0,0,1,ph,9,5,0.555555556,829,4471,8.405367376,0,11001101,1,0.055555556,0.555555556,4,1,1,5,1,1,1,chose desirable,desirable fac.,"(3.34e+03,4.98e+03]",FALSE,71
135,36,X2,0,0,1,1,ph,24,10,0.416666667,2253,12820,9.45876173,0,1.10E+23,0,-0.083333333,0.583333333,14,-4,4,14,0,1,-1,chose undesirable,desirable fac.,"(8.01e+03,8.89e+04]",FALSE,170
136,37,X2,0,0,0,0,tv,9,4,0.444444444,743,4520,8.416267273,0,100001101,1,-0.055555556,0.555555556,5,-1,1,5,1,-1,-1,chose undesirable,undesirable fac.,"(3.34e+03,4.98e+03]",FALSE,120
137,38,X2,0,0,0,0,tv,13,4,0.307692308,1709,6789,8.823058934,0,1100001010,1,-0.192307692,0.692307692,9,-5,5,9,1,-1,-1,chose undesirable,undesirable fac.,"(4.98e+03,8.01e+03]",FALSE,189
138,39,X2,1,0,0,1,ph,7,6,0.857142857,915,3382,8.126222529,0,1111011,1,0.357142857,0.857142857,1,5,5,6,1,1,1,chose desirable,desirable fac.,"(3.34e+03,4.98e+03]",FALSE,82
139,40,X2,1,0,0,1,ph,10,9,0.9,1773,5145,8.545780648,0,1110111111,1,0.4,0.9,1,8,8,9,1,1,1,chose desirable,desirable fac.,"(4.98e+03,8.01e+03]",FALSE,195
140,41,X2,0,0,0,0,tv,12,4,0.333333333,636,6121,8.719480761,0,1010010001,1,-0.166666667,0.666666667,8,-4,4,8,1,-1,-1,chose undesirable,undesirable fac.,"(4.98e+03,8.01e+03]",FALSE,71
141,42,X2,1,0,0,1,ph,4,2,0.5,375,1932,7.566311015,0,110,1,0,0.5,2,0,0,2,1,1,1,chose desirable,desirable fac.,"[7,2.1e+03]",FALSE,282
142,43,X2,0,1,1,0,ph,5,1,0.2,1486,2312,7.74586823,0,10000,1,-0.3,0.8,4,-3,3,4,1,-1,-1,chose undesirable,undesirable fac.,"(2.1e+03,3.34e+03]",FALSE,112
143,44,X2,0,1,0,1,tv,7,4,0.571428571,718,3347,8.115819701,0,1001011,0,0.071428571,0.428571429,3,1,-1,3,0,1,-1,chose undesirable,desirable fac.,"(3.34e+03,4.98e+03]",FALSE,47
144,45,X2,1,1,0,0,ph,8,6,0.75,1315,4064,8.309922989,0,111111,0,0.25,0.75,2,4,4,6,0,-1,1,chose desirable,undesirable fac.,"(3.34e+03,4.98e+03]",FALSE,214
145,46,X2,0,0,0,0,tv,38,16,0.421052632,2303,20686,9.937212422,0,1.11E+37,1,-0.078947368,0.578947368,22,-6,6,22,1,-1,-1,chose undesirable,undesirable fac.,"(8.01e+03,8.89e+04]",FALSE,336
146,47,X2,1,1,0,0,ph,12,7,0.583333333,1211,6263,8.742414583,0,1.01E+11,0,0.083333333,0.583333333,5,2,2,7,0,-1,1,chose desirable,undesirable fac.,"(4.98e+03,8.01e+03]",FALSE,213
147,48,X2,1,1,1,1,tv,27,17,0.62962963,2345,14747,9.598794951,0,1.01E+25,1,0.12962963,0.62962963,10,7,7,17,1,1,1,chose desirable,desirable fac.,"(8.01e+03,8.89e+04]",FALSE,447
148,49,X2,1,1,0,0,ph,4,3,0.75,687,2153,7.674617497,0,1101,0,0.25,0.75,1,2,2,3,0,-1,1,chose desirable,undesirable fac.,"(2.1e+03,3.34e+03]",FALSE,503
149,50,X2,1,0,0,1,ph,36,20,0.555555556,3326,19722,9.889490043,0,1.10E+35,1,0.055555556,0.555555556,16,4,4,20,1,1,1,chose desirable,desirable fac.,"(8.01e+03,8.89e+04]",FALSE,472
150,51,X2,1,1,1,1,tv,9,6,0.666666667,933,4604,8.43468077,0,1011111,1,0.166666667,0.666666667,3,3,3,6,1,1,1,chose desirable,desirable fac.,"(3.34e+03,4.98e+03]",FALSE,204
151,52,X2,1,1,1,1,tv,18,11,0.611111111,1644,9574,9.16680637,9,1.11E+17,1,0.111111111,0.611111111,7,4,4,11,1,1,1,chose desirable,desirable fac.,"(8.01e+03,8.89e+04]",FALSE,224
152,53,X2,1,0,1,0,tv,6,6,1,535,3093,8.036896773,0,111111,0,0.5,1,0,6,6,6,0,-1,1,chose desirable,undesirable fac.,"(2.1e+03,3.34e+03]",FALSE,343
154,55,X2,1,1,1,1,tv,7,4,0.571428571,1581,3457,8.14815644,0,101110,1,0.071428571,0.571428571,3,1,1,4,1,1,1,chose desirable,desirable fac.,"(3.34e+03,4.98e+03]",FALSE,157
155,56,X2,1,1,1,1,tv,7,5,0.714285714,1815,3488,8.157083785,0,1011110,1,0.214285714,0.714285714,2,3,3,5,1,1,1,chose desirable,desirable fac.,"(3.34e+03,4.98e+03]",FALSE,188
156,57,X2,1,1,0,0,ph,10,6,0.6,1358,5444,8.602269364,0,1000111110,0,0.1,0.6,4,2,2,6,0,-1,1,chose desirable,undesirable fac.,"(4.98e+03,8.01e+03]",FALSE,494
157,58,X2,1,1,1,1,tv,6,4,0.666666667,1312,2805,7.939158818,0,110110,1,0.166666667,0.666666667,2,2,2,4,1,1,1,chose desirable,desirable fac.,"(2.1e+03,3.34e+03]",FALSE,55
158,59,X2,1,1,1,1,tv,9,5,0.555555556,1133,4408,8.391176351,0,10110101,1,0.055555556,0.555555556,4,1,1,5,1,1,1,chose desirable,desirable fac.,"(3.34e+03,4.98e+03]",FALSE,8
159,60,X2,1,1,1,1,tv,7,6,0.857142857,2367,3464,8.15017927,0,111111,1,0.357142857,0.857142857,1,5,5,6,1,1,1,chose desirable,desirable fac.,"(3.34e+03,4.98e+03]",FALSE,164
161,62,X2,0,1,1,0,ph,12,4,0.333333333,1684,6561,8.788898309,0,11000101000,1,-0.166666667,0.666666667,8,-4,4,8,1,-1,-1,chose undesirable,undesirable fac.,"(4.98e+03,8.01e+03]",FALSE,511
162,63,X2,1,0,0,1,ph,8,7,0.875,2702,4400,8.38935982,0,11011111,1,0.375,0.875,1,6,6,7,1,1,1,chose desirable,desirable fac.,"(3.34e+03,4.98e+03]",FALSE,550
163,64,X2,0,0,0,0,tv,32,9,0.28125,2062,17553,9.772980154,0,1.10E+28,1,-0.21875,0.71875,23,-14,14,23,1,-1,-1,chose undesirable,undesirable fac.,"(8.01e+03,8.89e+04]",FALSE,503
164,65,X2,1,1,1,1,tv,7,5,0.714285714,196,3392,8.129174997,0,11111,1,0.214285714,0.714285714,2,3,3,5,1,1,1,chose desirable,desirable fac.,"(3.34e+03,4.98e+03]",FALSE,92
165,66,X2,1,1,1,1,tv,26,16,0.615384615,1155,14099,9.553859152,0,1.10E+25,1,0.115384615,0.615384615,10,6,6,16,1,1,1,chose desirable,desirable fac.,"(8.01e+03,8.89e+04]",FALSE,349
166,67,X2,0,1,1,0,ph,10,4,0.4,1722,5178,8.55217416,0,1010100010,1,-0.1,0.6,6,-2,2,6,1,-1,-1,chose undesirable,undesirable fac.,"(4.98e+03,8.01e+03]",FALSE,228
167,68,X2,0,1,1,0,ph,5,1,0.2,1830,2671,7.890208213,0,10000,1,-0.3,0.8,4,-3,3,4,1,-1,-1,chose undesirable,undesirable fac.,"(2.1e+03,3.34e+03]",FALSE,471
168,69,X2,0,0,0,0,tv,49,22,0.448979592,11597,26767,10.19492506,0,1.11E+48,1,-0.051020408,0.551020408,27,-5,5,27,1,-1,-1,chose undesirable,undesirable fac.,"(8.01e+03,8.89e+04]",FALSE,367
169,70,X2,0,0,0,0,tv,7,1,0.142857143,1055,3493,8.158516245,0,100,1,-0.357142857,0.857142857,6,-5,5,6,1,-1,-1,chose undesirable,undesirable fac.,"(3.34e+03,4.98e+03]",FALSE,193
170,71,X2,1,0,0,1,ph,9,7,0.777777778,3179,4643,8.443115988,0,111010111,1,0.277777778,0.777777778,2,5,5,7,1,1,1,chose desirable,desirable fac.,"(3.34e+03,4.98e+03]",FALSE,243
171,72,X2,0,0,0,0,tv,12,5,0.416666667,886,6185,8.729882285,0,11000100011,1,-0.083333333,0.583333333,7,-2,2,7,1,-1,-1,chose undesirable,undesirable fac.,"(4.98e+03,8.01e+03]",FALSE,135
173,74,X2,1,0,0,1,ph,12,9,0.75,1231,6456,8.77276521,0,1.10E+11,1,0.25,0.75,3,6,6,9,1,1,1,chose desirable,desirable fac.,"(4.98e+03,8.01e+03]",FALSE,406
174,75,X2,1,1,1,1,tv,8,5,0.625,633,4366,8.381602537,0,11001011,1,0.125,0.625,3,2,2,5,1,1,1,chose desirable,desirable fac.,"(3.34e+03,4.98e+03]",FALSE,516
175,76,X2,0,1,1,0,ph,24,10,0.416666667,2404,12905,9.465370112,0,1.10E+21,1,-0.083333333,0.583333333,14,-4,4,14,1,-1,-1,chose undesirable,undesirable fac.,"(8.01e+03,8.89e+04]",FALSE,255
176,77,X2,1,1,1,1,tv,6,5,0.833333333,846,2944,7.98752448,0,111011,1,0.333333333,0.833333333,1,4,4,5,1,1,1,chose desirable,desirable fac.,"(2.1e+03,3.34e+03]",FALSE,194
177,78,X2,0,1,1,0,ph,8,3,0.375,815,4008,8.296047643,0,11000010,1,-0.125,0.625,5,-2,2,5,1,-1,-1,chose undesirable,undesirable fac.,"(3.34e+03,4.98e+03]",FALSE,158
178,79,X2,0,1,1,0,ph,3,0,0,763,1584,7.367708572,0,0,1,-0.5,1,3,-3,3,3,1,-1,-1,chose undesirable,undesirable fac.,"[7,2.1e+03]",FALSE,484
179,80,X2,1,0,0,1,ph,29,22,0.75862069,1661,15826,9.669409436,0,1.11E+28,1,0.25862069,0.75862069,7,15,15,22,1,1,1,chose desirable,desirable fac.,"(8.01e+03,8.89e+04]",FALSE,426
180,81,X2,0,1,1,0,ph,77,29,0.376623377,8535,42191,10.64996221,3,1.01E+73,1,-0.123376623,0.623376623,48,-19,19,48,1,-1,-1,chose undesirable,undesirable fac.,"(8.01e+03,8.89e+04]",FALSE,391
181,82,X2,1,1,0,0,ph,5,3,0.6,1136,2570,7.851661178,0,10110,0,0.1,0.6,2,1,1,3,0,-1,1,chose desirable,undesirable fac.,"(2.1e+03,3.34e+03]",FALSE,370
182,83,X2,0,1,1,0,ph,7,2,0.285714286,374,3327,8.109826276,0,1010000,1,-0.214285714,0.714285714,5,-3,3,5,1,-1,-1,chose undesirable,undesirable fac.,"(2.1e+03,3.34e+03]",FALSE,27
183,84,X2,0,1,0,1,tv,2,0,0,1460,576,6.356107661,0,0,0,-0.5,1,2,-2,2,2,0,1,-1,chose undesirable,desirable fac.,"[7,2.1e+03]",FALSE,26
184,85,X2,1,0,0,1,ph,27,14,0.518518519,2012,14607,9.589256145,0,1.01E+25,1,0.018518519,0.518518519,13,1,1,14,1,1,1,chose desirable,desirable fac.,"(8.01e+03,8.89e+04]",FALSE,307
185,86,X2,0,0,0,0,tv,5,2,0.4,575,2455,7.80588204,0,1001,1,-0.1,0.6,3,-1,1,3,1,-1,-1,chose undesirable,undesirable fac.,"(2.1e+03,3.34e+03]",FALSE,255
186,87,X2,0,0,0,0,tv,5,1,0.2,788,2740,7.915713199,0,100,1,-0.3,0.8,4,-3,3,4,1,-1,-1,chose undesirable,undesirable fac.,"(2.1e+03,3.34e+03]",FALSE,540
187,88,X2,1,0,1,0,tv,9,5,0.555555556,98,4887,8.494333897,0,11001011,0,0.055555556,0.555555556,4,1,1,5,0,-1,1,chose desirable,undesirable fac.,"(3.34e+03,4.98e+03]",FALSE,487
189,90,X2,0,1,1,0,ph,14,4,0.285714286,854,7249,8.888618807,0,11001000100,1,-0.214285714,0.714285714,10,-6,6,10,1,-1,-1,chose undesirable,undesirable fac.,"(4.98e+03,8.01e+03]",FALSE,99
190,91,X2,0,0,0,0,tv,12,2,0.166666667,1550,6384,8.761550139,0,1.00E+11,1,-0.333333333,0.833333333,10,-8,8,10,1,-1,-1,chose undesirable,undesirable fac.,"(4.98e+03,8.01e+03]",FALSE,334
191,92,X2,0,0,0,0,tv,19,6,0.315789474,3832,10000,9.210340372,0,1.00E+14,1,-0.184210526,0.684210526,13,-7,7,13,1,-1,-1,chose undesirable,undesirable fac.,"(8.01e+03,8.89e+04]",FALSE,100
192,93,X2,0,1,1,0,ph,16,6,0.375,685,8338,9.028578658,0,10111100001,1,-0.125,0.625,10,-4,4,10,1,-1,-1,chose undesirable,undesirable fac.,"(8.01e+03,8.89e+04]",FALSE,88
193,94,X2,0,0,0,0,tv,14,6,0.428571429,1303,7161,8.876404915,0,1.10E+12,1,-0.071428571,0.571428571,8,-2,2,8,1,-1,-1,chose undesirable,undesirable fac.,"(4.98e+03,8.01e+03]",FALSE,11
194,95,X2,1,1,1,1,tv,11,6,0.545454545,43295,5855,8.675051276,0,11010011001,1,0.045454545,0.545454545,5,1,1,6,1,1,1,chose desirable,desirable fac.,"(4.98e+03,8.01e+03]",FALSE,355
195,96,X2,1,0,0,1,ph,20,12,0.6,1719,10624,9.270870872,0,1.01E+18,1,0.1,0.6,8,4,4,12,1,1,1,chose desirable,desirable fac.,"(8.01e+03,8.89e+04]",FALSE,174
196,97,X2,0,0,0,0,tv,7,3,0.428571429,2401,3442,8.143807977,3,1101,1,-0.071428571,0.571428571,4,-1,1,4,1,-1,-1,chose undesirable,undesirable fac.,"(3.34e+03,4.98e+03]",FALSE,142
197,98,X2,0,0,1,1,ph,5,2,0.4,105,2548,7.843064017,0,1001,0,-0.1,0.6,3,-1,1,3,0,1,-1,chose undesirable,desirable fac.,"(2.1e+03,3.34e+03]",FALSE,348
198,99,X2,1,1,1,1,tv,11,7,0.636363636,1021,5808,8.666991557,0,10011110110,1,0.136363636,0.636363636,4,3,3,7,1,1,1,chose desirable,desirable fac.,"(4.98e+03,8.01e+03]",FALSE,308
199,1,X3,0,1,1,0,ph,6,2,0.333333333,562,2998,8.005700679,3,11000,1,-0.166666667,0.666666667,4,-2,2,4,1,-1,-1,chose undesirable,undesirable fac.,"(2.1e+03,3.34e+03]",FALSE,248
200,2,X3,0,1,1,0,ph,6,3,0.5,638,3134,8.050065423,0,1011,1,0,0.5,3,0,0,3,1,-1,-1,chose undesirable,undesirable fac.,"(2.1e+03,3.34e+03]",FALSE,384
202,4,X3,0,1,1,0,ph,9,4,0.444444444,634,4437,8.397733751,0,110000011,1,-0.055555556,0.555555556,5,-1,1,5,1,-1,-1,chose undesirable,undesirable fac.,"(3.34e+03,4.98e+03]",FALSE,37
204,6,X3,1,1,1,1,tv,7,6,0.857142857,788,3376,8.124446856,0,1110111,1,0.357142857,0.857142857,1,5,5,6,1,1,1,chose desirable,desirable fac.,"(3.34e+03,4.98e+03]",FALSE,76
205,7,X3,0,0,0,0,tv,9,3,0.333333333,1335,4777,8.471568013,0,100100100,1,-0.166666667,0.666666667,6,-3,3,6,1,-1,-1,chose undesirable,undesirable fac.,"(3.34e+03,4.98e+03]",FALSE,377
206,8,X3,1,0,0,1,ph,5,3,0.6,1669,2536,7.838343316,0,1110,1,0.1,0.6,2,1,1,3,1,1,1,chose desirable,desirable fac.,"(2.1e+03,3.34e+03]",FALSE,336
207,9,X3,1,1,1,1,tv,17,9,0.529411765,949,8879,9.091444217,4,1.11E+16,1,0.029411765,0.529411765,8,1,1,9,1,1,1,chose desirable,desirable fac.,"(8.01e+03,8.89e+04]",FALSE,79
208,10,X3,1,0,0,1,ph,11,8,0.727272727,864,5703,8.648747631,0,11001011111,1,0.227272727,0.727272727,3,5,5,8,1,1,1,chose desirable,desirable fac.,"(4.98e+03,8.01e+03]",FALSE,203
209,11,X3,0,0,0,0,tv,7,3,0.428571429,445,3554,8.175829009,0,1010001,1,-0.071428571,0.571428571,4,-1,1,4,1,-1,-1,chose undesirable,undesirable fac.,"(3.34e+03,4.98e+03]",FALSE,254
210,12,X3,0,0,1,1,ph,4,1,0.25,318,1896,7.547501683,0,100,0,-0.25,0.75,3,-2,2,3,0,1,-1,chose undesirable,desirable fac.,"[7,2.1e+03]",FALSE,246
211,13,X3,1,1,1,1,tv,14,8,0.571428571,1250,7583,8.933664179,0,1.01E+13,1,0.071428571,0.571428571,6,2,2,8,1,1,1,chose desirable,desirable fac.,"(4.98e+03,8.01e+03]",FALSE,433
213,15,X3,1,0,0,1,ph,6,6,1,1089,2902,7.973155433,3,111111,1,0.5,1,0,6,6,6,1,1,1,chose desirable,desirable fac.,"(2.1e+03,3.34e+03]",FALSE,152
216,18,X3,1,0,0,1,ph,8,7,0.875,1430,4048,8.305978211,4,11011111,1,0.375,0.875,1,6,6,7,1,1,1,chose desirable,desirable fac.,"(3.34e+03,4.98e+03]",FALSE,198
217,19,X3,0,0,0,0,tv,17,6,0.352941176,1054,9055,9.11107237,8,1.11E+16,1,-0.147058824,0.647058824,11,-5,5,11,1,-1,-1,chose undesirable,undesirable fac.,"(8.01e+03,8.89e+04]",FALSE,255
218,20,X3,0,1,1,0,ph,4,1,0.25,670,2104,7.651595574,0,1,1,-0.25,0.75,3,-2,2,3,1,-1,-1,chose undesirable,undesirable fac.,"(2.1e+03,3.34e+03]",FALSE,454
219,21,X3,0,1,0,1,tv,9,4,0.444444444,865,4526,8.417593826,0,1010101,0,-0.055555556,0.555555556,5,-1,1,5,0,1,-1,chose undesirable,desirable fac.,"(3.34e+03,4.98e+03]",FALSE,126
220,22,X3,1,1,1,1,tv,5,2,0.4,511,2614,7.868636894,0,10001,1,-0.1,0.4,3,-1,-1,2,1,1,1,chose desirable,desirable fac.,"(2.1e+03,3.34e+03]",FALSE,414
221,23,X3,1,1,1,1,tv,6,4,0.666666667,791,3224,8.078378104,0,101110,1,0.166666667,0.666666667,2,2,2,4,1,1,1,chose desirable,desirable fac.,"(2.1e+03,3.34e+03]",FALSE,474
222,24,X3,0,0,0,0,tv,7,1,0.142857143,1393,3312,8.105307516,0,100,1,-0.357142857,0.857142857,6,-5,5,6,1,-1,-1,chose undesirable,undesirable fac.,"(2.1e+03,3.34e+03]",FALSE,12
224,26,X3,0,0,0,0,tv,16,4,0.25,2220,8361,9.031333316,1,1.01E+13,1,-0.25,0.75,12,-8,8,12,1,-1,-1,chose undesirable,undesirable fac.,"(8.01e+03,8.89e+04]",FALSE,111
225,27,X3,1,1,1,1,tv,6,5,0.833333333,874,2950,7.989560449,0,11111,1,0.333333333,0.833333333,1,4,4,5,1,1,1,chose desirable,desirable fac.,"(2.1e+03,3.34e+03]",FALSE,200
226,28,X3,0,0,0,0,tv,16,5,0.3125,1651,8440,9.040737588,0,1.00E+14,1,-0.1875,0.6875,11,-6,6,11,1,-1,-1,chose undesirable,undesirable fac.,"(8.01e+03,8.89e+04]",FALSE,190
227,29,X3,0,0,1,1,ph,4,1,0.25,562,1951,7.576097341,0,1,0,-0.25,0.75,3,-2,2,3,0,1,-1,chose undesirable,desirable fac.,"[7,2.1e+03]",FALSE,301
228,30,X3,1,0,0,1,ph,5,5,1,2091,2250,7.718685495,0,11111,1,0.5,1,0,5,5,5,1,1,1,chose desirable,desirable fac.,"(2.1e+03,3.34e+03]",FALSE,50
229,31,X3,0,0,0,0,tv,11,4,0.363636364,175,5711,8.650149419,0,1010011000,1,-0.136363636,0.636363636,7,-3,3,7,1,-1,-1,chose undesirable,undesirable fac.,"(4.98e+03,8.01e+03]",FALSE,211
230,32,X3,1,0,1,0,tv,13,5,0.384615385,2103,6864,8.834045641,0,1.00E+11,0,-0.115384615,0.384615385,8,-3,-3,5,0,-1,1,chose desirable,undesirable fac.,"(4.98e+03,8.01e+03]",FALSE,264
231,33,X3,0,0,0,0,tv,36,16,0.444444444,1239,19489,9.877605483,0,1.01E+35,1,-0.055555556,0.555555556,20,-4,4,20,1,-1,-1,chose undesirable,undesirable fac.,"(8.01e+03,8.89e+04]",FALSE,239
232,34,X3,1,0,0,1,ph,5,4,0.8,456,2400,7.783224016,0,11101,1,0.3,0.8,1,3,3,4,1,1,1,chose desirable,desirable fac.,"(2.1e+03,3.34e+03]",FALSE,200
233,35,X3,0,1,1,0,ph,17,7,0.411764706,359,9279,9.135509061,0,1.10E+16,1,-0.088235294,0.588235294,10,-3,3,10,1,-1,-1,chose undesirable,undesirable fac.,"(8.01e+03,8.89e+04]",FALSE,479
234,36,X3,1,1,0,0,ph,10,5,0.5,1431,5195,8.555451904,0,110101100,0,0,0.5,5,0,0,5,0,-1,1,chose desirable,undesirable fac.,"(4.98e+03,8.01e+03]",FALSE,245
235,37,X3,1,0,1,0,tv,17,9,0.529411765,590,9128,9.119101892,0,1.10E+16,0,0.029411765,0.529411765,8,1,1,9,0,-1,1,chose desirable,undesirable fac.,"(8.01e+03,8.89e+04]",FALSE,328
236,38,X3,0,0,0,0,tv,19,7,0.368421053,3298,10049,9.215228406,2,1.00E+16,1,-0.131578947,0.631578947,12,-5,5,12,1,-1,-1,chose undesirable,undesirable fac.,"(8.01e+03,8.89e+04]",FALSE,149
237,39,X3,0,1,1,0,ph,9,3,0.333333333,1038,4457,8.402231173,0,100001100,1,-0.166666667,0.666666667,6,-3,3,6,1,-1,-1,chose undesirable,undesirable fac.,"(3.34e+03,4.98e+03]",FALSE,57
238,40,X3,1,1,0,0,ph,12,8,0.666666667,918,6241,8.738895705,0,1.10E+11,0,0.166666667,0.666666667,4,4,4,8,0,-1,1,chose desirable,undesirable fac.,"(4.98e+03,8.01e+03]",FALSE,191
239,41,X3,0,0,0,0,tv,9,4,0.444444444,660,4548,8.422442855,0,100111000,1,-0.055555556,0.555555556,5,-1,1,5,1,-1,-1,chose undesirable,undesirable fac.,"(3.34e+03,4.98e+03]",FALSE,148
240,42,X3,1,0,0,1,ph,5,4,0.8,210,2625,7.872836175,0,1111,1,0.3,0.8,1,3,3,4,1,1,1,chose desirable,desirable fac.,"(2.1e+03,3.34e+03]",FALSE,425
241,43,X3,0,0,1,1,ph,8,4,0.5,632,4115,8.322394113,0,1011001,0,0,0.5,4,0,0,4,0,1,-1,chose undesirable,desirable fac.,"(3.34e+03,4.98e+03]",FALSE,265
242,44,X3,1,1,1,1,tv,4,4,1,444,1911,7.555381944,0,1111,1,0.5,1,0,4,4,4,1,1,1,chose desirable,desirable fac.,"[7,2.1e+03]",FALSE,261
243,45,X3,1,1,0,0,ph,10,7,0.7,389,5112,8.539345996,0,1100011111,0,0.2,0.7,3,4,4,7,0,-1,1,chose desirable,undesirable fac.,"(4.98e+03,8.01e+03]",FALSE,162
244,46,X3,0,1,0,1,tv,22,9,0.409090909,1202,11860,9.380926673,2,1.11E+21,0,-0.090909091,0.590909091,13,-4,4,13,0,1,-1,chose undesirable,desirable fac.,"(8.01e+03,8.89e+04]",FALSE,310
245,47,X3,1,1,0,0,ph,13,7,0.538461538,799,6624,8.798454696,0,1.00E+12,0,0.038461538,0.538461538,6,1,1,7,0,-1,1,chose desirable,undesirable fac.,"(4.98e+03,8.01e+03]",FALSE,24
246,48,X3,0,0,0,0,tv,11,3,0.272727273,1970,5875,8.678461339,0,1001001000,1,-0.227272727,0.727272727,8,-5,5,8,1,-1,-1,chose undesirable,undesirable fac.,"(4.98e+03,8.01e+03]",FALSE,375
247,49,X3,0,1,1,0,ph,6,2,0.333333333,503,2961,7.993282328,0,100001,1,-0.166666667,0.666666667,4,-2,2,4,1,-1,-1,chose undesirable,undesirable fac.,"(2.1e+03,3.34e+03]",FALSE,211
248,50,X3,1,0,0,1,ph,39,21,0.538461538,3495,21146,9.959206041,0,1.00E+38,1,0.038461538,0.538461538,18,3,3,21,1,1,1,chose desirable,desirable fac.,"(8.01e+03,8.89e+04]",FALSE,246
249,51,X3,0,1,0,1,tv,14,7,0.5,644,7385,8.907206195,0,1.10E+13,0,0,0.5,7,0,0,7,0,1,-1,chose undesirable,desirable fac.,"(4.98e+03,8.01e+03]",FALSE,235
250,52,X3,0,0,0,0,tv,9,1,0.111111111,1218,4615,8.437067147,5,10000000,1,-0.388888889,0.888888889,8,-7,7,8,1,-1,-1,chose undesirable,undesirable fac.,"(3.34e+03,4.98e+03]",FALSE,215
251,53,X3,0,1,0,1,tv,14,7,0.5,281,7156,8.875706445,0,1.11E+12,0,0,0.5,7,0,0,7,0,1,-1,chose undesirable,desirable fac.,"(4.98e+03,8.01e+03]",FALSE,6
253,55,X3,1,0,1,0,tv,10,5,0.5,533,5119,8.540714386,0,100110110,0,0,0.5,5,0,0,5,0,-1,1,chose desirable,undesirable fac.,"(4.98e+03,8.01e+03]",FALSE,169
254,56,X3,0,0,0,0,tv,6,2,0.333333333,662,3160,8.058327307,0,100001,1,-0.166666667,0.666666667,4,-2,2,4,1,-1,-1,chose undesirable,undesirable fac.,"(2.1e+03,3.34e+03]",FALSE,410
255,57,X3,0,0,1,1,ph,37,20,0.540540541,2010,19904,9.898675996,0,1.11E+36,0,0.040540541,0.459459459,17,3,-3,17,0,1,-1,chose undesirable,desirable fac.,"(8.01e+03,8.89e+04]",FALSE,104
256,58,X3,0,1,0,1,tv,7,3,0.428571429,2900,3490,8.157657015,0,1010001,0,-0.071428571,0.571428571,4,-1,1,4,0,1,-1,chose undesirable,desirable fac.,"(3.34e+03,4.98e+03]",FALSE,190
257,59,X3,1,1,1,1,tv,8,5,0.625,831,4376,8.383890344,0,101111,1,0.125,0.625,3,2,2,5,1,1,1,chose desirable,desirable fac.,"(3.34e+03,4.98e+03]",FALSE,526
258,60,X3,0,0,0,0,tv,19,7,0.368421053,1840,10087,9.219002745,0,1.00E+18,1,-0.131578947,0.631578947,12,-5,5,12,1,-1,-1,chose undesirable,undesirable fac.,"(8.01e+03,8.89e+04]",FALSE,187
260,62,X3,0,0,1,1,ph,17,6,0.352941176,4885,9189,9.125762396,0,1.01E+14,0,-0.147058824,0.647058824,11,-5,5,11,0,1,-1,chose undesirable,desirable fac.,"(8.01e+03,8.89e+04]",FALSE,389
261,63,X3,0,0,1,1,ph,9,2,0.222222222,934,4408,8.391176351,0,100000001,0,-0.277777778,0.777777778,7,-5,5,7,0,1,-1,chose undesirable,desirable fac.,"(3.34e+03,4.98e+03]",FALSE,8
262,64,X3,0,0,0,0,tv,15,5,0.333333333,1634,8242,9.016998312,0,1101110000,1,-0.166666667,0.666666667,10,-5,5,10,1,-1,-1,chose undesirable,undesirable fac.,"(8.01e+03,8.89e+04]",FALSE,542
263,65,X3,0,0,0,0,tv,8,3,0.375,1893,4315,8.369852604,0,10110000,1,-0.125,0.625,5,-2,2,5,1,-1,-1,chose undesirable,undesirable fac.,"(3.34e+03,4.98e+03]",FALSE,465
264,66,X3,0,0,0,0,tv,17,8,0.470588235,1642,8863,9.089640587,0,1.10E+13,1,-0.029411765,0.529411765,9,-1,1,9,1,-1,-1,chose undesirable,undesirable fac.,"(8.01e+03,8.89e+04]",FALSE,63
265,67,X3,1,1,0,0,ph,14,6,0.428571429,2390,7622,8.938794081,0,10010110110,0,-0.071428571,0.428571429,8,-2,-2,6,0,-1,1,chose desirable,undesirable fac.,"(4.98e+03,8.01e+03]",FALSE,472
266,68,X3,0,0,1,1,ph,8,3,0.375,477,4153,8.331586244,0,11100000,0,-0.125,0.625,5,-2,2,5,0,1,-1,chose undesirable,desirable fac.,"(3.34e+03,4.98e+03]",FALSE,303
267,69,X3,1,1,1,1,tv,37,26,0.702702703,29941,19824,9.894648604,0,1.00E+36,1,0.202702703,0.702702703,11,15,15,26,1,1,1,chose desirable,desirable fac.,"(8.01e+03,8.89e+04]",FALSE,24
268,70,X3,0,0,0,0,tv,8,3,0.375,1328,4218,8.347116361,0,10100100,1,-0.125,0.625,5,-2,2,5,1,-1,-1,chose undesirable,undesirable fac.,"(3.34e+03,4.98e+03]",FALSE,368
269,71,X3,1,0,0,1,ph,11,8,0.727272727,5461,5584,8.627660644,0,1110111011,1,0.227272727,0.727272727,3,5,5,8,1,1,1,chose desirable,desirable fac.,"(4.98e+03,8.01e+03]",FALSE,84
270,72,X3,1,1,1,1,tv,15,9,0.6,142,8211,9.013229998,0,1.11E+13,1,0.1,0.6,6,3,3,9,1,1,1,chose desirable,desirable fac.,"(8.01e+03,8.89e+04]",FALSE,511
271,73,X3,0,1,1,0,ph,3,0,0,962,1523,7.328437353,0,0,1,-0.5,1,3,-3,3,3,1,-1,-1,chose undesirable,undesirable fac.,"[7,2.1e+03]",FALSE,423
272,74,X3,1,1,0,0,ph,13,7,0.538461538,630,6672,8.805674944,0,1.01E+12,0,0.038461538,0.538461538,6,1,1,7,0,-1,1,chose desirable,undesirable fac.,"(4.98e+03,8.01e+03]",FALSE,72
273,75,X3,1,1,1,1,tv,9,6,0.666666667,500,4452,8.401108712,0,111000111,1,0.166666667,0.666666667,3,3,3,6,1,1,1,chose desirable,desirable fac.,"(3.34e+03,4.98e+03]",FALSE,52
274,76,X3,1,1,0,0,ph,10,4,0.4,1914,5328,8.580731212,0,100101010,0,-0.1,0.4,6,-2,-2,4,0,-1,1,chose desirable,undesirable fac.,"(4.98e+03,8.01e+03]",FALSE,378
275,77,X3,0,0,0,0,tv,10,4,0.4,8,5069,8.530898838,0,1000111000,1,-0.1,0.6,6,-2,2,6,1,-1,-1,chose undesirable,undesirable fac.,"(4.98e+03,8.01e+03]",FALSE,119
276,78,X3,0,1,1,0,ph,7,1,0.142857143,718,3696,8.215006433,0,1,1,-0.357142857,0.857142857,6,-5,5,6,1,-1,-1,chose undesirable,undesirable fac.,"(3.34e+03,4.98e+03]",FALSE,396
277,79,X3,0,1,1,0,ph,5,1,0.2,362,2681,7.893945138,0,1000,1,-0.3,0.8,4,-3,3,4,1,-1,-1,chose undesirable,undesirable fac.,"(2.1e+03,3.34e+03]",FALSE,481
278,80,X3,0,1,1,0,ph,35,13,0.371428571,1964,18782,9.840654243,0,1.10E+31,1,-0.128571429,0.628571429,22,-9,9,22,1,-1,-1,chose undesirable,undesirable fac.,"(8.01e+03,8.89e+04]",FALSE,82
279,81,X3,0,1,1,0,ph,82,35,0.426829268,31337,45023,10.71492875,1,1.11E+74,1,-0.073170732,0.573170732,47,-12,12,47,1,-1,-1,chose undesirable,undesirable fac.,"(8.01e+03,8.89e+04]",FALSE,473
280,82,X3,1,1,0,0,ph,5,4,0.8,1264,2470,7.81197343,0,10111,0,0.3,0.8,1,3,3,4,0,-1,1,chose desirable,undesirable fac.,"(2.1e+03,3.34e+03]",FALSE,270
281,83,X3,0,1,1,0,ph,5,1,0.2,367,2227,7.708410667,0,10000,1,-0.3,0.8,4,-3,3,4,1,-1,-1,chose undesirable,undesirable fac.,"(2.1e+03,3.34e+03]",FALSE,27
283,85,X3,1,0,0,1,ph,38,21,0.552631579,723,20611,9.933580193,0,1.11E+37,1,0.052631579,0.552631579,17,4,4,21,1,1,1,chose desirable,desirable fac.,"(8.01e+03,8.89e+04]",FALSE,261
284,86,X3,1,0,1,0,tv,4,3,0.75,695,1894,7.546446274,0,111,0,0.25,0.75,1,2,2,3,0,-1,1,chose desirable,undesirable fac.,"[7,2.1e+03]",FALSE,244
285,87,X3,1,0,1,0,tv,8,4,0.5,321,4126,8.325063694,0,1110100,0,0,0.5,4,0,0,4,0,-1,1,chose desirable,undesirable fac.,"(3.34e+03,4.98e+03]",FALSE,276
286,88,X3,0,1,0,1,tv,7,3,0.428571429,58,3652,8.203030242,0,100011,0,-0.071428571,0.571428571,4,-1,1,4,0,1,-1,chose undesirable,desirable fac.,"(3.34e+03,4.98e+03]",FALSE,352
288,90,X3,0,1,1,0,ph,4,0,0,725,1953,7.577121931,0,0,1,-0.5,1,4,-4,4,4,1,-1,-1,chose undesirable,undesirable fac.,"[7,2.1e+03]",FALSE,303
289,91,X3,0,1,0,1,tv,12,6,0.5,792,6270,8.743531634,0,1.00E+11,0,0,0.5,6,0,0,6,0,1,-1,chose undesirable,desirable fac.,"(4.98e+03,8.01e+03]",FALSE,220
290,92,X3,0,0,0,0,tv,9,1,0.111111111,32974,4424,8.394799543,0,10,1,-0.388888889,0.888888889,8,-7,7,8,1,-1,-1,chose undesirable,undesirable fac.,"(3.34e+03,4.98e+03]",FALSE,24
291,93,X3,0,1,1,0,ph,31,12,0.387096774,425,16749,9.726093834,0,1.11E+30,1,-0.112903226,0.612903226,19,-7,7,19,1,-1,-1,chose undesirable,undesirable fac.,"(8.01e+03,8.89e+04]",FALSE,249
292,94,X3,0,1,0,1,tv,22,11,0.5,332,11600,9.358760377,0,1.01E+21,0,0,0.5,11,0,0,11,0,1,-1,chose undesirable,desirable fac.,"(8.01e+03,8.89e+04]",FALSE,50
293,95,X3,0,0,0,0,tv,10,2,0.2,943,5456,8.6044712,0,1000010000,1,-0.3,0.8,8,-6,6,8,1,-1,-1,chose undesirable,undesirable fac.,"(4.98e+03,8.01e+03]",FALSE,506
294,96,X3,0,1,1,0,ph,25,8,0.32,2106,13297,9.495293725,0,1.11E+23,1,-0.18,0.68,17,-9,9,17,1,-1,-1,chose undesirable,undesirable fac.,"(8.01e+03,8.89e+04]",FALSE,97
295,97,X3,1,1,1,1,tv,12,9,0.75,1471,6164,8.726481196,6,1.01E+11,1,0.25,0.75,3,6,6,9,1,1,1,chose desirable,desirable fac.,"(4.98e+03,8.01e+03]",FALSE,114
296,98,X3,1,0,0,1,ph,5,4,0.8,2095,2701,7.901377354,0,10111,1,0.3,0.8,1,3,3,4,1,1,1,chose desirable,desirable fac.,"(2.1e+03,3.34e+03]",FALSE,501
297,99,X3,1,1,1,1,tv,12,8,0.666666667,783,6368,8.759040728,0,101111111,1,0.166666667,0.666666667,4,4,4,8,1,1,1,chose desirable,desirable fac.,"(4.98e+03,8.01e+03]",FALSE,318
298,1,X4,1,1,0,0,ph,3,2,0.666666667,497,1497,7.311218384,1,110,0,0.166666667,0.666666667,1,1,1,2,0,-1,1,chose desirable,undesirable fac.,"[7,2.1e+03]",FALSE,397
299,2,X4,1,0,0,1,ph,9,6,0.666666667,598,4489,8.409385239,0,100111101,1,0.166666667,0.666666667,3,3,3,6,1,1,1,chose desirable,desirable fac.,"(3.34e+03,4.98e+03]",FALSE,89
301,4,X4,0,1,1,0,ph,14,6,0.428571429,983,7674,8.945593271,0,1.00E+13,1,-0.071428571,0.571428571,8,-2,2,8,1,-1,-1,chose undesirable,undesirable fac.,"(4.98e+03,8.01e+03]",FALSE,524
303,6,X4,1,1,1,1,tv,7,5,0.714285714,533,3376,8.124446856,0,1001111,1,0.214285714,0.714285714,2,3,3,5,1,1,1,chose desirable,desirable fac.,"(3.34e+03,4.98e+03]",FALSE,76
304,7,X4,1,1,1,1,tv,7,5,0.714285714,1115,3411,8.134760782,0,1101101,1,0.214285714,0.714285714,2,3,3,5,1,1,1,chose desirable,desirable fac.,"(3.34e+03,4.98e+03]",FALSE,111
305,8,X4,0,0,1,1,ph,8,3,0.375,1240,4206,8.344267356,0,1001001,0,-0.125,0.625,5,-2,2,5,0,1,-1,chose undesirable,desirable fac.,"(3.34e+03,4.98e+03]",FALSE,356
306,9,X4,1,1,1,1,tv,8,8,1,82,3909,8.271036866,1,11111111,1,0.5,1,0,8,8,8,1,1,1,chose desirable,desirable fac.,"(3.34e+03,4.98e+03]",FALSE,59
307,10,X4,0,1,1,0,ph,6,1,0.166666667,923,3058,8.025516386,0,1000,1,-0.333333333,0.833333333,5,-4,4,5,1,-1,-1,chose undesirable,undesirable fac.,"(2.1e+03,3.34e+03]",FALSE,308
308,11,X4,0,0,0,0,tv,7,3,0.428571429,429,3559,8.177234886,0,101001,1,-0.071428571,0.571428571,4,-1,1,4,1,-1,-1,chose undesirable,undesirable fac.,"(3.34e+03,4.98e+03]",FALSE,259
309,12,X4,1,1,0,0,ph,3,3,1,368,1312,7.17930797,0,111,0,0.5,1,0,3,3,3,0,-1,1,chose desirable,undesirable fac.,"[7,2.1e+03]",FALSE,212
310,13,X4,1,1,1,1,tv,15,10,0.666666667,1072,7882,8.972336958,0,1.01E+14,1,0.166666667,0.666666667,5,5,5,10,1,1,1,chose desirable,desirable fac.,"(4.98e+03,8.01e+03]",FALSE,182
315,18,X4,1,0,0,1,ph,6,4,0.666666667,1071,3176,8.063377822,3,101110,1,0.166666667,0.666666667,2,2,2,4,1,1,1,chose desirable,desirable fac.,"(2.1e+03,3.34e+03]",FALSE,426
316,19,X4,0,0,0,0,tv,11,4,0.363636364,1565,5856,8.675222056,5,10000110100,1,-0.136363636,0.636363636,7,-3,3,7,1,-1,-1,chose undesirable,undesirable fac.,"(4.98e+03,8.01e+03]",FALSE,356
317,20,X4,1,1,0,0,ph,6,4,0.666666667,1103,3007,8.008698183,0,101110,0,0.166666667,0.666666667,2,2,2,4,0,-1,1,chose desirable,undesirable fac.,"(2.1e+03,3.34e+03]",FALSE,257
318,21,X4,1,1,1,1,tv,6,6,1,1851,3150,8.055157732,0,111111,1,0.5,1,0,6,6,6,1,1,1,chose desirable,desirable fac.,"(2.1e+03,3.34e+03]",FALSE,400
319,22,X4,0,1,0,1,tv,5,3,0.6,50940,2261,7.723562472,0,11010,0,0.1,0.4,2,1,-1,2,0,1,-1,chose undesirable,desirable fac.,"(2.1e+03,3.34e+03]",FALSE,61
320,23,X4,0,0,0,0,tv,5,1,0.2,551,2425,7.793586803,0,1,1,-0.3,0.8,4,-3,3,4,1,-1,-1,chose undesirable,undesirable fac.,"(2.1e+03,3.34e+03]",FALSE,225
321,24,X4,1,0,1,0,tv,10,4,0.4,1866,4963,8.509765676,0,101011000,0,-0.1,0.4,6,-2,-2,4,0,-1,1,chose desirable,undesirable fac.,"(3.34e+03,4.98e+03]",FALSE,13
323,26,X4,0,0,0,0,tv,18,5,0.277777778,2046,9802,9.190341725,0,1.01E+16,1,-0.222222222,0.722222222,13,-8,8,13,1,-1,-1,chose undesirable,undesirable fac.,"(8.01e+03,8.89e+04]",FALSE,452
324,27,X4,0,0,0,0,tv,6,2,0.333333333,925,3041,8.019941688,0,101,1,-0.166666667,0.666666667,4,-2,2,4,1,-1,-1,chose undesirable,undesirable fac.,"(2.1e+03,3.34e+03]",FALSE,291
325,28,X4,0,0,0,0,tv,39,14,0.358974359,1098,21085,9.956317166,0,1.10E+38,1,-0.141025641,0.641025641,25,-11,11,25,1,-1,-1,chose undesirable,undesirable fac.,"(8.01e+03,8.89e+04]",FALSE,185
326,29,X4,1,0,0,1,ph,4,3,0.75,614,1844,7.519692404,0,1110,1,0.25,0.75,1,2,2,3,1,1,1,chose desirable,desirable fac.,"[7,2.1e+03]",FALSE,194
327,30,X4,1,1,0,0,ph,9,6,0.666666667,625,4928,8.502688505,0,1101111,0,0.166666667,0.666666667,3,3,3,6,0,-1,1,chose desirable,undesirable fac.,"(3.34e+03,4.98e+03]",FALSE,528
328,31,X4,0,0,0,0,tv,5,0,0,3015,2567,7.850493181,0,0,1,-0.5,1,5,-5,5,5,1,-1,-1,chose undesirable,undesirable fac.,"(2.1e+03,3.34e+03]",FALSE,367
329,32,X4,1,1,1,1,tv,8,5,0.625,3221,4200,8.342839804,0,11010110,1,0.125,0.625,3,2,2,5,1,1,1,chose desirable,desirable fac.,"(3.34e+03,4.98e+03]",FALSE,350
330,33,X4,0,0,0,0,tv,13,2,0.153846154,1368,6704,8.810459642,0,10000001,1,-0.346153846,0.846153846,11,-9,9,11,1,-1,-1,chose undesirable,undesirable fac.,"(4.98e+03,8.01e+03]",FALSE,104
331,34,X4,0,0,1,1,ph,9,3,0.333333333,392,4416,8.392989588,0,111000000,0,-0.166666667,0.666666667,6,-3,3,6,0,1,-1,chose undesirable,desirable fac.,"(3.34e+03,4.98e+03]",FALSE,16
332,35,X4,1,1,0,0,ph,6,5,0.833333333,423,2895,7.97074039,0,110111,0,0.333333333,0.833333333,1,4,4,5,0,-1,1,chose desirable,undesirable fac.,"(2.1e+03,3.34e+03]",FALSE,145
333,36,X4,0,1,1,0,ph,8,2,0.25,1805,4207,8.344505084,0,10000001,1,-0.25,0.75,6,-4,4,6,1,-1,-1,chose undesirable,undesirable fac.,"(3.34e+03,4.98e+03]",FALSE,357
334,37,X4,1,0,1,0,tv,8,5,0.625,222,3943,8.279697134,0,1111010,0,0.125,0.625,3,2,2,5,0,-1,1,chose desirable,undesirable fac.,"(3.34e+03,4.98e+03]",FALSE,93
335,38,X4,0,0,0,0,tv,11,1,0.090909091,1864,5977,8.695674049,3,1,1,-0.409090909,0.909090909,10,-9,9,10,1,-1,-1,chose undesirable,undesirable fac.,"(4.98e+03,8.01e+03]",FALSE,477
336,39,X4,1,1,0,0,ph,6,5,0.833333333,1232,3203,8.07184315,0,111110,0,0.333333333,0.833333333,1,4,4,5,0,-1,1,chose desirable,undesirable fac.,"(2.1e+03,3.34e+03]",FALSE,453
337,40,X4,1,0,0,1,ph,17,10,0.588235294,639,8904,9.094255893,0,1.10E+16,1,0.088235294,0.588235294,7,3,3,10,1,1,1,chose desirable,desirable fac.,"(8.01e+03,8.89e+04]",FALSE,104
338,41,X4,1,1,1,1,tv,6,4,0.666666667,618,2797,7.936302693,0,11101,1,0.166666667,0.666666667,2,2,2,4,1,1,1,chose desirable,desirable fac.,"(2.1e+03,3.34e+03]",FALSE,47
339,42,X4,0,0,1,1,ph,5,2,0.4,208,2386,7.777373603,0,10001,0,-0.1,0.6,3,-1,1,3,0,1,-1,chose undesirable,desirable fac.,"(2.1e+03,3.34e+03]",FALSE,186
340,43,X4,0,0,1,1,ph,8,3,0.375,798,4066,8.310414994,0,10101000,0,-0.125,0.625,5,-2,2,5,0,1,-1,chose undesirable,desirable fac.,"(3.34e+03,4.98e+03]",FALSE,216
341,44,X4,0,1,0,1,tv,4,1,0.25,703,2119,7.658699558,0,1000,0,-0.25,0.75,3,-2,2,3,0,1,-1,chose undesirable,desirable fac.,"(2.1e+03,3.34e+03]",FALSE,469
342,45,X4,1,0,0,1,ph,11,5,0.454545455,1142,5520,8.616133139,0,10000100111,1,-0.045454545,0.454545455,6,-1,-1,5,1,1,1,chose desirable,desirable fac.,"(4.98e+03,8.01e+03]",FALSE,20
343,46,X4,1,1,1,1,tv,29,18,0.620689655,995,15560,9.652458798,1,1.01E+28,1,0.120689655,0.620689655,11,7,7,18,1,1,1,chose desirable,desirable fac.,"(8.01e+03,8.89e+04]",FALSE,160
344,47,X4,0,1,1,0,ph,5,2,0.4,512,2449,7.803435057,0,101,1,-0.1,0.6,3,-1,1,3,1,-1,-1,chose undesirable,undesirable fac.,"(2.1e+03,3.34e+03]",FALSE,249
345,48,X4,0,0,0,0,tv,11,3,0.272727273,4498,5775,8.661293535,0,11010000,1,-0.227272727,0.727272727,8,-5,5,8,1,-1,-1,chose undesirable,undesirable fac.,"(4.98e+03,8.01e+03]",FALSE,275
346,49,X4,1,0,0,1,ph,8,5,0.625,452,3987,8.290794347,0,10111010,1,0.125,0.625,3,2,2,5,1,1,1,chose desirable,desirable fac.,"(3.34e+03,4.98e+03]",FALSE,137
347,50,X4,0,1,1,0,ph,26,10,0.384615385,3237,14154,9.557752549,0,1.00E+24,1,-0.115384615,0.615384615,16,-6,6,16,1,-1,-1,chose undesirable,undesirable fac.,"(8.01e+03,8.89e+04]",FALSE,404
348,51,X4,0,1,0,1,tv,9,4,0.444444444,667,4762,8.468423027,0,101010001,0,-0.055555556,0.555555556,5,-1,1,5,0,1,-1,chose undesirable,desirable fac.,"(3.34e+03,4.98e+03]",FALSE,362
349,52,X4,1,1,1,1,tv,19,12,0.631578947,1715,10394,9.248983996,10,1.01E+18,1,0.131578947,0.631578947,7,5,5,12,1,1,1,chose desirable,desirable fac.,"(8.01e+03,8.89e+04]",FALSE,494
350,53,X4,1,0,1,0,tv,7,5,0.714285714,563,3390,8.1285852,0,1011110,0,0.214285714,0.714285714,2,3,3,5,0,-1,1,chose desirable,undesirable fac.,"(3.34e+03,4.98e+03]",FALSE,90
352,55,X4,1,0,1,0,tv,8,6,0.75,1208,4137,8.327726166,0,10101111,0,0.25,0.75,2,4,4,6,0,-1,1,chose desirable,undesirable fac.,"(3.34e+03,4.98e+03]",FALSE,287
353,56,X4,0,0,0,0,tv,9,2,0.222222222,840,4440,8.398409655,0,100010000,1,-0.277777778,0.777777778,7,-5,5,7,1,-1,-1,chose undesirable,undesirable fac.,"(3.34e+03,4.98e+03]",FALSE,40
354,57,X4,1,0,0,1,ph,10,6,0.6,1058,5460,8.605204069,0,1000111110,1,0.1,0.6,4,2,2,6,1,1,1,chose desirable,desirable fac.,"(4.98e+03,8.01e+03]",FALSE,510
355,58,X4,1,1,1,1,tv,9,5,0.555555556,1215,4811,8.478660242,0,100101110,1,0.055555556,0.555555556,4,1,1,5,1,1,1,chose desirable,desirable fac.,"(3.34e+03,4.98e+03]",FALSE,411
356,59,X4,1,1,1,1,tv,9,5,0.555555556,552,4719,8.459352192,0,1100111,1,0.055555556,0.555555556,4,1,1,5,1,1,1,chose desirable,desirable fac.,"(3.34e+03,4.98e+03]",FALSE,319
357,60,X4,1,1,1,1,tv,10,7,0.7,2607,5407,8.595449689,0,1100111011,1,0.2,0.7,3,4,4,7,1,1,1,chose desirable,desirable fac.,"(4.98e+03,8.01e+03]",FALSE,457
359,62,X4,1,0,0,1,ph,20,14,0.7,1694,10756,9.283219017,1,1.11E+19,1,0.2,0.7,6,8,8,14,1,1,1,chose desirable,desirable fac.,"(8.01e+03,8.89e+04]",FALSE,306
360,63,X4,1,0,0,1,ph,20,9,0.45,2366,10496,9.258749511,0,1.00E+18,1,-0.05,0.45,11,-2,-2,9,1,1,1,chose desirable,desirable fac.,"(8.01e+03,8.89e+04]",FALSE,46
361,64,X4,1,1,1,1,tv,37,20,0.540540541,331,19822,9.894547711,0,1.11E+35,1,0.040540541,0.540540541,17,3,3,20,1,1,1,chose desirable,desirable fac.,"(8.01e+03,8.89e+04]",FALSE,22
362,65,X4,1,1,1,1,tv,7,4,0.571428571,1736,3327,8.109826276,0,1110010,1,0.071428571,0.571428571,3,1,1,4,1,1,1,chose desirable,desirable fac.,"(2.1e+03,3.34e+03]",FALSE,27
363,66,X4,1,0,1,0,tv,12,7,0.583333333,1612,6397,8.763584409,0,11110001110,0,0.083333333,0.583333333,5,2,2,7,0,-1,1,chose desirable,undesirable fac.,"(4.98e+03,8.01e+03]",FALSE,347
364,67,X4,0,0,1,1,ph,12,6,0.5,1231,6306,8.74925684,0,10000111101,0,0,0.5,6,0,0,6,0,1,-1,chose undesirable,desirable fac.,"(4.98e+03,8.01e+03]",FALSE,256
365,68,X4,0,0,1,1,ph,8,3,0.375,287,3872,8.261526448,0,110100,0,-0.125,0.625,5,-2,2,5,0,1,-1,chose undesirable,desirable fac.,"(3.34e+03,4.98e+03]",FALSE,22
366,69,X4,0,0,0,0,tv,52,24,0.461538462,3480,28397,10.25403878,0,1.00E+49,1,-0.038461538,0.538461538,28,-4,4,28,1,-1,-1,chose undesirable,undesirable fac.,"(8.01e+03,8.89e+04]",FALSE,347
367,70,X4,0,1,0,1,tv,10,6,0.6,793,4996,8.516392871,0,10110111,0,0.1,0.4,4,2,-2,4,0,1,-1,chose undesirable,desirable fac.,"(4.98e+03,8.01e+03]",FALSE,46
368,71,X4,1,0,0,1,ph,12,11,0.916666667,1085,6559,8.788593431,0,1.11E+11,1,0.416666667,0.916666667,1,10,10,11,1,1,1,chose desirable,desirable fac.,"(4.98e+03,8.01e+03]",FALSE,509
369,72,X4,1,0,1,0,tv,15,6,0.4,759,7720,8.951569643,0,1011100011,0,-0.1,0.4,9,-3,-3,6,0,-1,1,chose desirable,undesirable fac.,"(4.98e+03,8.01e+03]",FALSE,20
371,74,X4,0,1,1,0,ph,31,13,0.419354839,998,16670,9.721365976,0,1.10E+30,1,-0.080645161,0.580645161,18,-5,5,18,1,-1,-1,chose undesirable,undesirable fac.,"(8.01e+03,8.89e+04]",FALSE,170
372,75,X4,0,1,0,1,tv,5,1,0.2,449,2429,7.795234929,0,1,0,-0.3,0.8,4,-3,3,4,0,1,-1,chose undesirable,desirable fac.,"(2.1e+03,3.34e+03]",FALSE,229
373,76,X4,0,1,1,0,ph,7,2,0.285714286,549,3832,8.251142139,0,1000001,1,-0.214285714,0.714285714,5,-3,3,5,1,-1,-1,chose undesirable,undesirable fac.,"(3.34e+03,4.98e+03]",FALSE,532
374,77,X4,0,0,0,0,tv,7,2,0.285714286,149,3482,8.15536212,0,100001,1,-0.214285714,0.714285714,5,-3,3,5,1,-1,-1,chose undesirable,undesirable fac.,"(3.34e+03,4.98e+03]",FALSE,182
375,78,X4,1,0,0,1,ph,12,7,0.583333333,664,6528,8.783855897,0,10100110111,1,0.083333333,0.583333333,5,2,2,7,1,1,1,chose desirable,desirable fac.,"(4.98e+03,8.01e+03]",FALSE,478
376,79,X4,0,0,1,1,ph,5,1,0.2,711,2472,7.812782819,0,10000,0,-0.3,0.8,4,-3,3,4,0,1,-1,chose undesirable,desirable fac.,"(2.1e+03,3.34e+03]",FALSE,272
377,80,X4,1,0,0,1,ph,27,19,0.703703704,1903,14795,9.602044565,0,1.10E+26,1,0.203703704,0.703703704,8,11,11,19,1,1,1,chose desirable,desirable fac.,"(8.01e+03,8.89e+04]",FALSE,495
378,81,X4,0,1,1,0,ph,80,27,0.3375,18391,43760,10.68647544,2,1.00E+77,1,-0.1625,0.6625,53,-26,26,53,1,-1,-1,chose undesirable,undesirable fac.,"(8.01e+03,8.89e+04]",FALSE,310
379,82,X4,0,1,1,0,ph,3,0,0,634,1478,7.298445102,0,0,1,-0.5,1,3,-3,3,3,1,-1,-1,chose undesirable,undesirable fac.,"[7,2.1e+03]",FALSE,378
380,83,X4,0,0,1,1,ph,6,2,0.333333333,242,2832,7.948738455,0,10100,0,-0.166666667,0.666666667,4,-2,2,4,0,1,-1,chose undesirable,desirable fac.,"(2.1e+03,3.34e+03]",FALSE,82
382,85,X4,1,0,0,1,ph,17,10,0.588235294,1139,8944,9.098738195,0,1.01E+16,1,0.088235294,0.588235294,7,3,3,10,1,1,1,chose desirable,desirable fac.,"(8.01e+03,8.89e+04]",FALSE,144
383,86,X4,1,1,1,1,tv,6,4,0.666666667,9246,2904,7.973844376,0,11011,1,0.166666667,0.666666667,2,2,2,4,1,1,1,chose desirable,desirable fac.,"(2.1e+03,3.34e+03]",FALSE,154
384,87,X4,1,1,1,1,tv,6,5,0.833333333,1023,3286,8.097426299,0,11111,1,0.333333333,0.833333333,1,4,4,5,1,1,1,chose desirable,desirable fac.,"(2.1e+03,3.34e+03]",FALSE,536
387,90,X4,1,0,0,1,ph,5,4,0.8,1304,2336,7.756195344,0,11011,1,0.3,0.8,1,3,3,4,1,1,1,chose desirable,desirable fac.,"(2.1e+03,3.34e+03]",FALSE,136
388,91,X4,1,1,1,1,tv,9,6,0.666666667,566,4424,8.394799543,0,101110011,1,0.166666667,0.666666667,3,3,3,6,1,1,1,chose desirable,desirable fac.,"(3.34e+03,4.98e+03]",FALSE,24
389,92,X4,1,1,1,1,tv,13,8,0.615384615,694,6911,8.840869624,0,1.00E+12,1,0.115384615,0.615384615,5,3,3,8,1,1,1,chose desirable,desirable fac.,"(4.98e+03,8.01e+03]",FALSE,311
390,93,X4,1,1,0,0,ph,24,12,0.5,623,12819,9.458683724,0,1.01E+22,0,0,0.5,12,0,0,12,0,-1,1,chose desirable,undesirable fac.,"(8.01e+03,8.89e+04]",FALSE,169
391,94,X4,0,0,0,0,tv,11,3,0.272727273,48,5519,8.615951963,0,110001000,1,-0.227272727,0.727272727,8,-5,5,8,1,-1,-1,chose undesirable,undesirable fac.,"(4.98e+03,8.01e+03]",FALSE,19
392,95,X4,0,0,0,0,tv,13,4,0.307692308,7330,7136,8.872907674,0,10110100000,1,-0.192307692,0.692307692,9,-5,5,9,1,-1,-1,chose undesirable,undesirable fac.,"(4.98e+03,8.01e+03]",FALSE,536
393,96,X4,1,0,0,1,ph,31,15,0.483870968,1607,16703,9.723343623,0,1.11E+29,1,-0.016129032,0.483870968,16,-1,-1,15,1,1,1,chose desirable,desirable fac.,"(8.01e+03,8.89e+04]",FALSE,203
394,97,X4,0,0,0,0,tv,7,1,0.142857143,2640,3671,8.208219383,3,10000,1,-0.357142857,0.857142857,6,-5,5,6,1,-1,-1,chose undesirable,undesirable fac.,"(3.34e+03,4.98e+03]",FALSE,371
395,98,X4,1,0,0,1,ph,6,4,0.666666667,2379,2841,7.951911382,0,101011,1,0.166666667,0.666666667,2,2,2,4,1,1,1,chose desirable,desirable fac.,"(2.1e+03,3.34e+03]",FALSE,91
396,99,X4,0,0,0,0,tv,19,6,0.315789474,734,10103,9.220587688,0,1.00E+18,1,-0.184210526,0.684210526,13,-7,7,13,1,-1,-1,chose undesirable,undesirable fac.,"(8.01e+03,8.89e+04]",FALSE,203
397,1,X5,1,0,0,1,ph,3,2,0.666666667,322,1425,7.261927093,1,110,1,0.166666667,0.666666667,1,1,1,2,1,1,1,chose desirable,desirable fac.,"[7,2.1e+03]",FALSE,325
398,2,X5,0,0,1,1,ph,6,2,0.333333333,570,2966,7.994969523,0,10001,0,-0.166666667,0.666666667,4,-2,2,4,0,1,-1,chose undesirable,desirable fac.,"(2.1e+03,3.34e+03]",FALSE,216
400,4,X5,0,0,1,1,ph,11,4,0.363636364,521,5821,8.669227347,0,1100101,0,-0.136363636,0.636363636,7,-3,3,7,0,1,-1,chose undesirable,desirable fac.,"(4.98e+03,8.01e+03]",FALSE,321
402,6,X5,1,1,1,1,tv,12,7,0.583333333,500,6175,8.728264161,0,10101110011,1,0.083333333,0.583333333,5,2,2,7,1,1,1,chose desirable,desirable fac.,"(4.98e+03,8.01e+03]",FALSE,125
403,7,X5,0,0,0,0,tv,9,3,0.333333333,2015,4784,8.473032296,0,11001000,1,-0.166666667,0.666666667,6,-3,3,6,1,-1,-1,chose undesirable,undesirable fac.,"(3.34e+03,4.98e+03]",FALSE,384
404,8,X5,0,1,1,0,ph,9,3,0.333333333,1392,4639,8.442254105,0,100101000,1,-0.166666667,0.666666667,6,-3,3,6,1,-1,-1,chose undesirable,undesirable fac.,"(3.34e+03,4.98e+03]",FALSE,239
405,9,X5,1,1,1,1,tv,22,13,0.590909091,2433,11778,9.373988664,5,1.00E+21,1,0.090909091,0.590909091,9,4,4,13,1,1,1,chose desirable,desirable fac.,"(8.01e+03,8.89e+04]",FALSE,228
406,10,X5,1,0,0,1,ph,11,9,0.818181818,1075,5763,8.659213451,0,11100111111,1,0.318181818,0.818181818,2,7,7,9,1,1,1,chose desirable,desirable fac.,"(4.98e+03,8.01e+03]",FALSE,263
407,11,X5,0,0,0,0,tv,6,2,0.333333333,543,2960,7.992944547,0,101000,1,-0.166666667,0.666666667,4,-2,2,4,1,-1,-1,chose undesirable,undesirable fac.,"(2.1e+03,3.34e+03]",FALSE,210
408,12,X5,0,0,1,1,ph,6,2,0.333333333,364,2919,7.978996371,0,101000,0,-0.166666667,0.666666667,4,-2,2,4,0,1,-1,chose undesirable,desirable fac.,"(2.1e+03,3.34e+03]",FALSE,169
409,13,X5,1,1,1,1,tv,10,5,0.5,1140,5431,8.599878558,0,111010010,1,0,0.5,5,0,0,5,1,1,1,chose desirable,desirable fac.,"(4.98e+03,8.01e+03]",FALSE,481
411,15,X5,0,1,1,0,ph,4,0,0,257,2039,7.620214771,2,0,1,-0.5,1,4,-4,4,4,1,-1,-1,chose undesirable,undesirable fac.,"[7,2.1e+03]",FALSE,389
414,18,X5,1,0,0,1,ph,5,5,1,2632,2617,7.869783903,2,11111,1,0.5,1,0,5,5,5,1,1,1,chose desirable,desirable fac.,"(2.1e+03,3.34e+03]",FALSE,417
415,19,X5,1,1,1,1,tv,7,4,0.571428571,1116,3825,8.249313746,3,1010110,1,0.071428571,0.571428571,3,1,1,4,1,1,1,chose desirable,desirable fac.,"(3.34e+03,4.98e+03]",FALSE,525
416,20,X5,0,1,1,0,ph,6,1,0.166666667,744,2992,8.003697339,0,100,1,-0.333333333,0.833333333,5,-4,4,5,1,-1,-1,chose undesirable,undesirable fac.,"(2.1e+03,3.34e+03]",FALSE,242
417,21,X5,1,1,1,1,tv,6,5,0.833333333,991,3264,8.090708716,0,111110,1,0.333333333,0.833333333,1,4,4,5,1,1,1,chose desirable,desirable fac.,"(2.1e+03,3.34e+03]",FALSE,514
418,22,X5,1,0,1,0,tv,5,1,0.2,642,2703,7.902117546,0,10000,0,-0.3,0.2,4,-3,-3,1,0,-1,1,chose desirable,undesirable fac.,"(2.1e+03,3.34e+03]",FALSE,503
419,23,X5,1,1,1,1,tv,4,3,0.75,652,1824,7.508787171,0,1110,1,0.25,0.75,1,2,2,3,1,1,1,chose desirable,desirable fac.,"[7,2.1e+03]",FALSE,174
420,24,X5,1,1,1,1,tv,11,6,0.545454545,1055,5874,8.678291112,0,11010001110,1,0.045454545,0.545454545,5,1,1,6,1,1,1,chose desirable,desirable fac.,"(4.98e+03,8.01e+03]",FALSE,374
422,26,X5,0,0,0,0,tv,23,5,0.217391304,1869,12481,9.431962767,0,1.00E+21,1,-0.282608696,0.782608696,18,-13,13,18,1,-1,-1,chose undesirable,undesirable fac.,"(8.01e+03,8.89e+04]",FALSE,381
423,27,X5,0,1,0,1,tv,6,1,0.166666667,695,2924,7.980707821,0,100000,0,-0.333333333,0.833333333,5,-4,4,5,0,1,-1,chose undesirable,desirable fac.,"(2.1e+03,3.34e+03]",FALSE,174
424,28,X5,1,1,1,1,tv,24,17,0.708333333,1076,12787,9.456184309,0,1.11E+23,1,0.208333333,0.708333333,7,10,10,17,1,1,1,chose desirable,desirable fac.,"(8.01e+03,8.89e+04]",FALSE,137
425,29,X5,1,0,0,1,ph,6,3,0.5,461,3296,8.100464891,0,10110,1,0,0.5,3,0,0,3,1,1,1,chose desirable,desirable fac.,"(2.1e+03,3.34e+03]",FALSE,546
426,30,X5,1,0,0,1,ph,15,9,0.6,895,7810,8.963160243,0,1.01E+14,1,0.1,0.6,6,3,3,9,1,1,1,chose desirable,desirable fac.,"(4.98e+03,8.01e+03]",FALSE,110
427,31,X5,0,1,0,1,tv,12,5,0.416666667,2318,6247,8.739856627,0,1110010001,0,-0.083333333,0.583333333,7,-2,2,7,0,1,-1,chose undesirable,desirable fac.,"(4.98e+03,8.01e+03]",FALSE,197
428,32,X5,1,1,1,1,tv,12,7,0.583333333,813,6497,8.779095811,0,1.11E+11,1,0.083333333,0.583333333,5,2,2,7,1,1,1,chose desirable,desirable fac.,"(4.98e+03,8.01e+03]",FALSE,447
429,33,X5,1,1,1,1,tv,20,13,0.65,2343,10768,9.284334052,0,1.11E+18,1,0.15,0.65,7,6,6,13,1,1,1,chose desirable,desirable fac.,"(8.01e+03,8.89e+04]",FALSE,318
430,34,X5,0,0,1,1,ph,15,6,0.4,495,8118,9.001839097,0,1.11E+12,0,-0.1,0.6,9,-3,3,9,0,1,-1,chose undesirable,desirable fac.,"(8.01e+03,8.89e+04]",FALSE,418
431,35,X5,0,0,1,1,ph,11,4,0.363636364,420,6000,8.699514748,0,10101010000,0,-0.136363636,0.636363636,7,-3,3,7,0,1,-1,chose undesirable,desirable fac.,"(4.98e+03,8.01e+03]",FALSE,500
432,36,X5,1,0,0,1,ph,8,6,0.75,1751,4176,8.33710913,0,11101110,1,0.25,0.75,2,4,4,6,1,1,1,chose desirable,desirable fac.,"(3.34e+03,4.98e+03]",FALSE,326
433,37,X5,1,1,1,1,tv,9,5,0.555555556,134,4675,8.449984442,0,101100110,1,0.055555556,0.555555556,4,1,1,5,1,1,1,chose desirable,desirable fac.,"(3.34e+03,4.98e+03]",FALSE,275
434,38,X5,1,1,1,1,tv,8,4,0.5,2674,4259,8.35678967,1,10001110,1,0,0.5,4,0,0,4,1,1,1,chose desirable,desirable fac.,"(3.34e+03,4.98e+03]",FALSE,409
435,39,X5,0,1,1,0,ph,7,2,0.285714286,390,3305,8.103191752,0,10010,1,-0.214285714,0.714285714,5,-3,3,5,1,-1,-1,chose undesirable,undesirable fac.,"(2.1e+03,3.34e+03]",FALSE,5
436,40,X5,1,1,0,0,ph,21,8,0.380952381,836,11362,9.338029733,0,1.00E+18,0,-0.119047619,0.380952381,13,-5,-5,8,0,-1,1,chose desirable,undesirable fac.,"(8.01e+03,8.89e+04]",FALSE,362
437,41,X5,1,1,1,1,tv,17,10,0.588235294,456,8895,9.0932446,0,1.10E+16,1,0.088235294,0.588235294,7,3,3,10,1,1,1,chose desirable,desirable fac.,"(8.01e+03,8.89e+04]",FALSE,95
438,42,X5,1,0,0,1,ph,5,4,0.8,256,2232,7.710653324,0,11011,1,0.3,0.8,1,3,3,4,1,1,1,chose desirable,desirable fac.,"(2.1e+03,3.34e+03]",FALSE,32
439,43,X5,1,0,0,1,ph,6,4,0.666666667,466,3283,8.096512918,0,1111,1,0.166666667,0.666666667,2,2,2,4,1,1,1,chose desirable,desirable fac.,"(2.1e+03,3.34e+03]",FALSE,533
440,44,X5,1,1,1,1,tv,4,4,1,503,2088,7.643961949,0,1111,1,0.5,1,0,4,4,4,1,1,1,chose desirable,desirable fac.,"[7,2.1e+03]",FALSE,438
441,45,X5,1,0,0,1,ph,16,8,0.5,988,8455,9.042513261,0,1.11E+15,1,0,0.5,8,0,0,8,1,1,1,chose desirable,desirable fac.,"(8.01e+03,8.89e+04]",FALSE,205
442,46,X5,1,1,1,1,tv,19,11,0.578947368,1055,10202,9.230339058,1,1.01E+18,1,0.078947368,0.578947368,8,3,3,11,1,1,1,chose desirable,desirable fac.,"(8.01e+03,8.89e+04]",FALSE,302
443,47,X5,1,0,0,1,ph,7,4,0.571428571,996,3327,8.109826276,0,1011010,1,0.071428571,0.571428571,3,1,1,4,1,1,1,chose desirable,desirable fac.,"(2.1e+03,3.34e+03]",FALSE,27
444,48,X5,0,1,0,1,tv,18,11,0.611111111,5072,9506,9.159678457,0,1.10E+17,0,0.111111111,0.388888889,7,4,-4,7,0,1,-1,chose undesirable,desirable fac.,"(8.01e+03,8.89e+04]",FALSE,156
445,49,X5,1,1,0,0,ph,8,6,0.75,336,4077,8.313116703,0,1101111,0,0.25,0.75,2,4,4,6,0,-1,1,chose desirable,undesirable fac.,"(3.34e+03,4.98e+03]",FALSE,227
446,50,X5,1,0,0,1,ph,26,18,0.692307692,3958,13962,9.544094633,0,1.10E+25,1,0.192307692,0.692307692,8,10,10,18,1,1,1,chose desirable,desirable fac.,"(8.01e+03,8.89e+04]",FALSE,212
447,51,X5,0,0,0,0,tv,11,3,0.272727273,706,5801,8.665785595,0,100011000,1,-0.227272727,0.727272727,8,-5,5,8,1,-1,-1,chose undesirable,undesirable fac.,"(4.98e+03,8.01e+03]",FALSE,301
448,52,X5,0,1,0,1,tv,31,13,0.419354839,2282,16787,9.728360056,16,1.11E+27,0,-0.080645161,0.580645161,18,-5,5,18,0,1,-1,chose undesirable,desirable fac.,"(8.01e+03,8.89e+04]",FALSE,287
449,53,X5,1,1,1,1,tv,9,6,0.666666667,492,4784,8.473032296,0,1110111,1,0.166666667,0.666666667,3,3,3,6,1,1,1,chose desirable,desirable fac.,"(3.34e+03,4.98e+03]",FALSE,384
451,55,X5,0,0,0,0,tv,14,6,0.428571429,517,7345,8.901775089,0,1.10E+13,1,-0.071428571,0.571428571,8,-2,2,8,1,-1,-1,chose undesirable,undesirable fac.,"(4.98e+03,8.01e+03]",FALSE,195
452,56,X5,1,1,1,1,tv,8,5,0.625,982,4368,8.382060517,0,1101110,1,0.125,0.625,3,2,2,5,1,1,1,chose desirable,desirable fac.,"(3.34e+03,4.98e+03]",FALSE,518
453,57,X5,0,1,1,0,ph,8,2,0.25,959,3964,8.285008895,0,10000001,1,-0.25,0.75,6,-4,4,6,1,-1,-1,chose undesirable,undesirable fac.,"(3.34e+03,4.98e+03]",FALSE,114
454,58,X5,1,1,1,1,tv,7,4,0.571428571,903,3423,8.138272639,0,11110,1,0.071428571,0.571428571,3,1,1,4,1,1,1,chose desirable,desirable fac.,"(3.34e+03,4.98e+03]",FALSE,123
455,59,X5,1,1,1,1,tv,9,6,0.666666667,287,4568,8.426830751,0,11011011,1,0.166666667,0.666666667,3,3,3,6,1,1,1,chose desirable,desirable fac.,"(3.34e+03,4.98e+03]",FALSE,168
456,60,X5,1,1,1,1,tv,18,12,0.666666667,1470,9720,9.181940897,0,1.01E+17,1,0.166666667,0.666666667,6,6,6,12,1,1,1,chose desirable,desirable fac.,"(8.01e+03,8.89e+04]",FALSE,370
458,62,X5,1,0,0,1,ph,21,13,0.619047619,1791,11299,9.332469505,0,1.00E+20,1,0.119047619,0.619047619,8,5,5,13,1,1,1,chose desirable,desirable fac.,"(8.01e+03,8.89e+04]",FALSE,299
459,63,X5,1,0,0,1,ph,13,9,0.692307692,870,6636,8.800264651,0,1.11E+12,1,0.192307692,0.692307692,4,5,5,9,1,1,1,chose desirable,desirable fac.,"(4.98e+03,8.01e+03]",FALSE,36
460,64,X5,0,0,0,0,tv,35,10,0.285714286,286,18728,9.837775009,0,1.00E+34,1,-0.214285714,0.714285714,25,-15,15,25,1,-1,-1,chose undesirable,undesirable fac.,"(8.01e+03,8.89e+04]",FALSE,28
461,65,X5,1,1,1,1,tv,5,5,1,1200,2335,7.75576717,0,11111,1,0.5,1,0,5,5,5,1,1,1,chose desirable,desirable fac.,"(2.1e+03,3.34e+03]",FALSE,135
462,66,X5,0,0,0,0,tv,16,8,0.5,1555,8297,9.023649283,0,1.11E+15,1,0,0.5,8,0,0,8,1,-1,-1,chose undesirable,undesirable fac.,"(8.01e+03,8.89e+04]",FALSE,47
463,67,X5,1,0,0,1,ph,11,8,0.727272727,907,5562,8.623713035,0,11010110111,1,0.227272727,0.727272727,3,5,5,8,1,1,1,chose desirable,desirable fac.,"(4.98e+03,8.01e+03]",FALSE,62
464,68,X5,1,0,0,1,ph,7,3,0.428571429,806,3496,8.159374737,0,11010,1,-0.071428571,0.428571429,4,-1,-1,3,1,1,1,chose desirable,desirable fac.,"(3.34e+03,4.98e+03]",FALSE,196
465,69,X5,0,0,0,0,tv,50,24,0.48,5465,27469,10.22081338,0,1.11E+49,1,-0.02,0.52,26,-2,2,26,1,-1,-1,chose undesirable,undesirable fac.,"(8.01e+03,8.89e+04]",FALSE,519
466,70,X5,0,0,0,0,tv,9,3,0.333333333,975,4697,8.454679286,0,110100000,1,-0.166666667,0.666666667,6,-3,3,6,1,-1,-1,chose undesirable,undesirable fac.,"(3.34e+03,4.98e+03]",FALSE,297
467,71,X5,0,1,1,0,ph,12,7,0.583333333,1311,6157,8.725344925,0,1.01E+11,1,0.083333333,0.416666667,5,2,-2,5,1,-1,-1,chose undesirable,undesirable fac.,"(4.98e+03,8.01e+03]",FALSE,107
468,72,X5,0,1,0,1,tv,13,8,0.615384615,665,6944,8.845633256,0,1.11E+12,0,0.115384615,0.384615385,5,3,-3,5,0,1,-1,chose undesirable,desirable fac.,"(4.98e+03,8.01e+03]",FALSE,344
470,74,X5,0,1,1,0,ph,8,2,0.25,606,3898,8.26821888,0,10000001,1,-0.25,0.75,6,-4,4,6,1,-1,-1,chose undesirable,undesirable fac.,"(3.34e+03,4.98e+03]",FALSE,48
471,75,X5,1,1,1,1,tv,7,5,0.714285714,576,3508,8.162801353,0,11111,1,0.214285714,0.714285714,2,3,3,5,1,1,1,chose desirable,desirable fac.,"(3.34e+03,4.98e+03]",FALSE,208
472,76,X5,1,1,0,0,ph,15,9,0.6,677,8202,9.012133306,0,1.01E+14,0,0.1,0.6,6,3,3,9,0,-1,1,chose desirable,undesirable fac.,"(8.01e+03,8.89e+04]",FALSE,502
473,77,X5,1,0,1,0,tv,15,7,0.466666667,93,7970,8.983439772,0,1.11E+11,0,-0.033333333,0.466666667,8,-1,-1,7,0,-1,1,chose desirable,undesirable fac.,"(4.98e+03,8.01e+03]",FALSE,270
474,78,X5,1,0,0,1,ph,6,5,0.833333333,591,3255,8.087947555,0,110111,1,0.333333333,0.833333333,1,4,4,5,1,1,1,chose desirable,desirable fac.,"(2.1e+03,3.34e+03]",FALSE,505
475,79,X5,0,0,1,1,ph,5,1,0.2,804,2280,7.731930722,0,1000,0,-0.3,0.8,4,-3,3,4,0,1,-1,chose undesirable,desirable fac.,"(2.1e+03,3.34e+03]",FALSE,80
476,80,X5,0,1,1,0,ph,27,13,0.481481481,1110,14781,9.601097851,0,1.00E+25,1,-0.018518519,0.518518519,14,-1,1,14,1,-1,-1,chose undesirable,undesirable fac.,"(8.01e+03,8.89e+04]",FALSE,481
477,81,X5,1,0,0,1,ph,67,41,0.611940299,13151,36407,10.50251634,1,1.11E+65,1,0.111940299,0.611940299,26,15,15,41,1,1,1,chose desirable,desirable fac.,"(8.01e+03,8.89e+04]",FALSE,107
478,82,X5,1,0,0,1,ph,4,3,0.75,908,1951,7.576097341,0,1011,1,0.25,0.75,1,2,2,3,1,1,1,chose desirable,desirable fac.,"[7,2.1e+03]",FALSE,301
479,83,X5,0,0,1,1,ph,3,1,0.333333333,110,1243,7.125283092,0,1,0,-0.166666667,0.666666667,2,-1,1,2,0,1,-1,chose undesirable,desirable fac.,"[7,2.1e+03]",FALSE,143
480,84,X5,0,0,0,0,tv,2,0,0,1590,584,6.369900983,0,0,1,-0.5,1,2,-2,2,2,1,-1,-1,chose undesirable,undesirable fac.,"[7,2.1e+03]",FALSE,34
481,85,X5,1,0,0,1,ph,22,14,0.636363636,699,11696,9.367002182,0,1.01E+21,1,0.136363636,0.636363636,8,6,6,14,1,1,1,chose desirable,desirable fac.,"(8.01e+03,8.89e+04]",FALSE,146
482,86,X5,1,1,1,1,tv,4,3,0.75,7644,2074,7.637234389,0,1011,1,0.25,0.75,1,2,2,3,1,1,1,chose desirable,desirable fac.,"[7,2.1e+03]",FALSE,424
483,87,X5,0,1,0,1,tv,7,3,0.428571429,316,3722,8.222016437,0,1000101,0,-0.071428571,0.571428571,4,-1,1,4,0,1,-1,chose undesirable,desirable fac.,"(3.34e+03,4.98e+03]",FALSE,422
486,90,X5,0,1,1,0,ph,2,0,0,967,1035,6.942156706,0,0,1,-0.5,1,2,-2,2,2,1,-1,-1,chose undesirable,undesirable fac.,"[7,2.1e+03]",FALSE,485
487,91,X5,1,1,1,1,tv,8,4,0.5,766,4216,8.34664209,0,1011010,1,0,0.5,4,0,0,4,1,1,1,chose desirable,desirable fac.,"(3.34e+03,4.98e+03]",FALSE,366
488,92,X5,0,0,0,0,tv,20,8,0.4,783,10880,9.29468152,0,1.00E+18,1,-0.1,0.6,12,-4,4,12,1,-1,-1,chose undesirable,undesirable fac.,"(8.01e+03,8.89e+04]",FALSE,430
489,93,X5,0,0,1,1,ph,12,4,0.333333333,618,6517,8.782169426,0,1.10E+11,0,-0.166666667,0.666666667,8,-4,4,8,0,1,-1,chose undesirable,desirable fac.,"(4.98e+03,8.01e+03]",FALSE,467
490,94,X5,0,1,0,1,tv,19,12,0.631578947,3113,10080,9.218308542,0,1.01E+18,0,0.131578947,0.368421053,7,5,-5,7,0,1,-1,chose undesirable,desirable fac.,"(8.01e+03,8.89e+04]",FALSE,180
491,95,X5,1,1,1,1,tv,13,7,0.538461538,8693,6992,8.852521917,0,1.10E+11,1,0.038461538,0.538461538,6,1,1,7,1,1,1,chose desirable,desirable fac.,"(4.98e+03,8.01e+03]",FALSE,392
492,96,X5,0,0,1,1,ph,48,22,0.458333333,1638,26016,10.16646701,0,1.01E+47,0,-0.041666667,0.541666667,26,-4,4,26,0,1,-1,chose undesirable,desirable fac.,"(8.01e+03,8.89e+04]",FALSE,166
493,97,X5,1,0,1,0,tv,10,5,0.5,872,5346,8.584103897,5,1010100011,0,0,0.5,5,0,0,5,0,-1,1,chose desirable,undesirable fac.,"(4.98e+03,8.01e+03]",FALSE,396
494,98,X5,0,0,1,1,ph,5,3,0.6,59,2253,7.72001794,0,10011,0,0.1,0.4,2,1,-1,2,0,1,-1,chose undesirable,desirable fac.,"(2.1e+03,3.34e+03]",FALSE,53
495,99,X5,0,0,0,0,tv,34,13,0.382352941,1191,18471,9.823957214,0,1.01E+29,1,-0.117647059,0.617647059,21,-8,8,21,1,-1,-1,chose undesirable,undesirable fac.,"(8.01e+03,8.89e+04]",FALSE,321
496,1,X6,1,0,0,1,ph,3,3,1,255,1421,7.259116128,1,111,1,0.5,1,0,3,3,3,1,1,1,chose desirable,desirable fac.,"[7,2.1e+03]",FALSE,321
497,2,X6,1,0,0,1,ph,6,4,0.666666667,526,3104,8.040446881,0,101110,1,0.166666667,0.666666667,2,2,2,4,1,1,1,chose desirable,desirable fac.,"(2.1e+03,3.34e+03]",FALSE,354
499,4,X6,0,1,1,0,ph,9,3,0.333333333,1238,4841,8.48487659,0,101001000,1,-0.166666667,0.666666667,6,-3,3,6,1,-1,-1,chose undesirable,undesirable fac.,"(3.34e+03,4.98e+03]",FALSE,441
501,6,X6,0,0,0,0,tv,6,1,0.166666667,439,2768,7.925880317,0,10000,1,-0.333333333,0.833333333,5,-4,4,5,1,-1,-1,chose undesirable,undesirable fac.,"(2.1e+03,3.34e+03]",FALSE,18
502,7,X6,1,1,1,1,tv,7,5,0.714285714,1246,3768,8.234299636,0,1101110,1,0.214285714,0.714285714,2,3,3,5,1,1,1,chose desirable,desirable fac.,"(3.34e+03,4.98e+03]",FALSE,468
503,8,X6,1,0,0,1,ph,9,5,0.555555556,1550,4784,8.473032296,0,10111010,1,0.055555556,0.555555556,4,1,1,5,1,1,1,chose desirable,desirable fac.,"(3.34e+03,4.98e+03]",FALSE,384
504,9,X6,0,0,0,0,tv,13,5,0.384615385,372,7116,8.870101049,3,1101110000,1,-0.115384615,0.615384615,8,-3,3,8,1,-1,-1,chose undesirable,undesirable fac.,"(4.98e+03,8.01e+03]",FALSE,516
505,10,X6,1,0,0,1,ph,20,12,0.6,1007,10498,9.258940042,0,1.10E+19,1,0.1,0.6,8,4,4,12,1,1,1,chose desirable,desirable fac.,"(8.01e+03,8.89e+04]",FALSE,48
506,11,X6,0,1,0,1,tv,6,3,0.5,464,2790,7.933796875,0,100101,0,0,0.5,3,0,0,3,0,1,-1,chose undesirable,desirable fac.,"(2.1e+03,3.34e+03]",FALSE,40
507,12,X6,0,0,1,1,ph,3,0,0,194,1448,7.277938573,0,0,0,-0.5,1,3,-3,3,3,0,1,-1,chose undesirable,desirable fac.,"[7,2.1e+03]",FALSE,348
508,13,X6,0,0,0,0,tv,10,4,0.4,829,5039,8.524962929,0,101000011,1,-0.1,0.6,6,-2,2,6,1,-1,-1,chose undesirable,undesirable fac.,"(4.98e+03,8.01e+03]",FALSE,89
513,18,X6,0,1,1,0,ph,10,5,0.5,676,5153,8.547334348,5,1001100101,1,0,0.5,5,0,0,5,1,-1,-1,chose undesirable,undesirable fac.,"(4.98e+03,8.01e+03]",FALSE,203
514,19,X6,1,0,1,0,tv,7,4,0.571428571,496,3393,8.129469765,3,1110100,0,0.071428571,0.571428571,3,1,1,4,0,-1,1,chose desirable,undesirable fac.,"(3.34e+03,4.98e+03]",FALSE,93
515,20,X6,0,0,1,1,ph,7,2,0.285714286,838,3736,8.225770799,0,11000,0,-0.214285714,0.714285714,5,-3,3,5,0,1,-1,chose undesirable,desirable fac.,"(3.34e+03,4.98e+03]",FALSE,436
516,21,X6,0,0,0,0,tv,7,0,0,1111,3694,8.214465161,0,0,1,-0.5,1,7,-7,7,7,1,-1,-1,chose undesirable,undesirable fac.,"(3.34e+03,4.98e+03]",FALSE,394
517,22,X6,0,0,0,0,tv,8,3,0.375,1445,3859,8.258163362,0,1100010,1,-0.125,0.625,5,-2,2,5,1,-1,-1,chose undesirable,undesirable fac.,"(3.34e+03,4.98e+03]",FALSE,9
518,23,X6,1,1,1,1,tv,4,4,1,951,2120,7.659171368,0,1111,1,0.5,1,0,4,4,4,1,1,1,chose desirable,desirable fac.,"(2.1e+03,3.34e+03]",FALSE,470
519,24,X6,1,1,1,1,tv,7,5,0.714285714,1058,3615,8.192847135,0,101111,1,0.214285714,0.714285714,2,3,3,5,1,1,1,chose desirable,desirable fac.,"(3.34e+03,4.98e+03]",FALSE,315
521,26,X6,1,1,1,1,tv,57,33,0.578947368,2530,30919,10.33912616,2,1.01E+56,1,0.078947368,0.578947368,24,9,9,33,1,1,1,chose desirable,desirable fac.,"(8.01e+03,8.89e+04]",FALSE,119
522,27,X6,0,0,0,0,tv,8,3,0.375,647,4031,8.301769763,0,11000100,1,-0.125,0.625,5,-2,2,5,1,-1,-1,chose undesirable,undesirable fac.,"(3.34e+03,4.98e+03]",FALSE,181
523,28,X6,0,0,0,0,tv,19,6,0.315789474,790,9956,9.205930663,0,1.00E+18,1,-0.184210526,0.684210526,13,-7,7,13,1,-1,-1,chose undesirable,undesirable fac.,"(8.01e+03,8.89e+04]",FALSE,56
524,29,X6,0,1,1,0,ph,5,1,0.2,318,2579,7.855157006,0,1000,1,-0.3,0.8,4,-3,3,4,1,-1,-1,chose undesirable,undesirable fac.,"(2.1e+03,3.34e+03]",FALSE,379
525,30,X6,1,0,0,1,ph,5,5,1,2060,2277,7.730614066,0,11111,1,0.5,1,0,5,5,5,1,1,1,chose desirable,desirable fac.,"(2.1e+03,3.34e+03]",FALSE,77
526,31,X6,0,0,0,0,tv,9,4,0.444444444,2494,4512,8.414495793,0,10100011,1,-0.055555556,0.555555556,5,-1,1,5,1,-1,-1,chose undesirable,undesirable fac.,"(3.34e+03,4.98e+03]",FALSE,112
527,32,X6,0,0,0,0,tv,12,3,0.25,349,6448,8.771525284,0,100001100,1,-0.25,0.75,9,-6,6,9,1,-1,-1,chose undesirable,undesirable fac.,"(4.98e+03,8.01e+03]",FALSE,398
528,33,X6,1,1,1,1,tv,24,17,0.708333333,335,12927,9.467073426,0,1.01E+23,1,0.208333333,0.708333333,7,10,10,17,1,1,1,chose desirable,desirable fac.,"(8.01e+03,8.89e+04]",FALSE,277
529,34,X6,1,0,0,1,ph,12,8,0.666666667,521,6418,8.766861822,0,11110010111,1,0.166666667,0.666666667,4,4,4,8,1,1,1,chose desirable,desirable fac.,"(4.98e+03,8.01e+03]",FALSE,368
530,35,X6,0,1,1,0,ph,9,4,0.444444444,741,4848,8.486321528,0,110100100,1,-0.055555556,0.555555556,5,-1,1,5,1,-1,-1,chose undesirable,undesirable fac.,"(3.34e+03,4.98e+03]",FALSE,448
531,36,X6,1,0,0,1,ph,18,11,0.611111111,976,9626,9.17222305,0,1.00E+17,1,0.111111111,0.611111111,7,4,4,11,1,1,1,chose desirable,desirable fac.,"(8.01e+03,8.89e+04]",FALSE,276
532,37,X6,0,0,0,0,tv,6,2,0.333333333,1700,3151,8.055475142,0,1001,1,-0.166666667,0.666666667,4,-2,2,4,1,-1,-1,chose undesirable,undesirable fac.,"(2.1e+03,3.34e+03]",FALSE,401
533,38,X6,1,1,1,1,tv,22,12,0.545454545,3056,12066,9.398146859,0,1.10E+21,1,0.045454545,0.545454545,10,2,2,12,1,1,1,chose desirable,desirable fac.,"(8.01e+03,8.89e+04]",FALSE,516
534,39,X6,0,1,1,0,ph,12,5,0.416666667,758,6133,8.721439306,0,1100001011,1,-0.083333333,0.583333333,7,-2,2,7,1,-1,-1,chose undesirable,undesirable fac.,"(4.98e+03,8.01e+03]",FALSE,83
535,40,X6,1,1,0,0,ph,26,13,0.5,307,14232,9.563248229,0,1.10E+24,0,0,0.5,13,0,0,13,0,-1,1,chose desirable,undesirable fac.,"(8.01e+03,8.89e+04]",FALSE,482
536,41,X6,0,0,0,0,tv,5,2,0.4,550,2408,7.786551806,0,11,1,-0.1,0.6,3,-1,1,3,1,-1,-1,chose undesirable,undesirable fac.,"(2.1e+03,3.34e+03]",FALSE,208
537,42,X6,1,0,0,1,ph,3,3,1,26,1640,7.402451521,0,111,1,0.5,1,0,3,3,3,1,1,1,chose desirable,desirable fac.,"[7,2.1e+03]",FALSE,540
538,43,X6,0,1,1,0,ph,6,3,0.5,457,3103,8.040124664,0,101001,1,0,0.5,3,0,0,3,1,-1,-1,chose undesirable,undesirable fac.,"(2.1e+03,3.34e+03]",FALSE,353
539,44,X6,1,1,1,1,tv,6,4,0.666666667,454,2843,7.952615112,0,10111,1,0.166666667,0.666666667,2,2,2,4,1,1,1,chose desirable,desirable fac.,"(2.1e+03,3.34e+03]",FALSE,93
540,45,X6,1,1,0,0,ph,15,6,0.4,126,8024,8.99019233,0,1.00E+13,0,-0.1,0.4,9,-3,-3,6,0,-1,1,chose desirable,undesirable fac.,"(8.01e+03,8.89e+04]",FALSE,324
542,47,X6,1,0,0,1,ph,7,5,0.714285714,408,3839,8.252967195,0,101111,1,0.214285714,0.714285714,2,3,3,5,1,1,1,chose desirable,desirable fac.,"(3.34e+03,4.98e+03]",FALSE,539
543,48,X6,0,1,0,1,tv,9,3,0.333333333,3778,4843,8.485289642,0,100100001,0,-0.166666667,0.666666667,6,-3,3,6,0,1,-1,chose undesirable,desirable fac.,"(3.34e+03,4.98e+03]",FALSE,443
544,49,X6,0,0,1,1,ph,15,7,0.466666667,394,7781,8.959440144,0,1.01E+14,0,-0.033333333,0.533333333,8,-1,1,8,0,1,-1,chose undesirable,desirable fac.,"(4.98e+03,8.01e+03]",FALSE,81
545,50,X6,0,1,1,0,ph,36,15,0.416666667,2208,19337,9.869775638,0,1.10E+31,1,-0.083333333,0.583333333,21,-6,6,21,1,-1,-1,chose undesirable,undesirable fac.,"(8.01e+03,8.89e+04]",FALSE,87
546,51,X6,0,0,0,0,tv,5,1,0.2,622,2336,7.756195344,0,10000,1,-0.3,0.8,4,-3,3,4,1,-1,-1,chose undesirable,undesirable fac.,"(2.1e+03,3.34e+03]",FALSE,136
547,52,X6,0,0,0,0,tv,20,6,0.3,3202,10955,9.301551252,10,1.01E+16,1,-0.2,0.7,14,-8,8,14,1,-1,-1,chose undesirable,undesirable fac.,"(8.01e+03,8.89e+04]",FALSE,505
548,53,X6,0,0,0,0,tv,8,2,0.25,423,4337,8.374938144,0,10100000,1,-0.25,0.75,6,-4,4,6,1,-1,-1,chose undesirable,undesirable fac.,"(3.34e+03,4.98e+03]",FALSE,487
550,55,X6,0,1,0,1,tv,5,1,0.2,710,2336,7.756195344,0,100,0,-0.3,0.8,4,-3,3,4,0,1,-1,chose undesirable,desirable fac.,"(2.1e+03,3.34e+03]",FALSE,136
551,56,X6,0,0,0,0,tv,6,0,0,1031,2967,7.99530662,0,0,1,-0.5,1,6,-6,6,6,1,-1,-1,chose undesirable,undesirable fac.,"(2.1e+03,3.34e+03]",FALSE,217
552,57,X6,0,1,1,0,ph,17,3,0.176470588,927,8916,9.095602695,0,1.00E+12,1,-0.323529412,0.823529412,14,-11,11,14,1,-1,-1,chose undesirable,undesirable fac.,"(8.01e+03,8.89e+04]",FALSE,116
553,58,X6,1,1,1,1,tv,7,4,0.571428571,802,3481,8.155074888,0,110110,1,0.071428571,0.571428571,3,1,1,4,1,1,1,chose desirable,desirable fac.,"(3.34e+03,4.98e+03]",FALSE,181
554,59,X6,1,1,1,1,tv,5,3,0.6,416,2408,7.786551806,0,11100,1,0.1,0.6,2,1,1,3,1,1,1,chose desirable,desirable fac.,"(2.1e+03,3.34e+03]",FALSE,208
555,60,X6,0,0,0,0,tv,10,4,0.4,2559,5128,8.542470999,0,11010001,1,-0.1,0.6,6,-2,2,6,1,-1,-1,chose undesirable,undesirable fac.,"(4.98e+03,8.01e+03]",FALSE,178
557,62,X6,1,0,0,1,ph,12,10,0.833333333,944,6287,8.746239288,0,1.01E+11,1,0.333333333,0.833333333,2,8,8,10,1,1,1,chose desirable,desirable fac.,"(4.98e+03,8.01e+03]",FALSE,237
558,63,X6,1,0,0,1,ph,20,12,0.6,762,10674,9.275566157,0,1.00E+19,1,0.1,0.6,8,4,4,12,1,1,1,chose desirable,desirable fac.,"(8.01e+03,8.89e+04]",FALSE,224
559,64,X6,0,0,0,0,tv,30,13,0.433333333,737,16058,9.683962447,0,1.11E+29,1,-0.066666667,0.566666667,17,-4,4,17,1,-1,-1,chose undesirable,undesirable fac.,"(8.01e+03,8.89e+04]",FALSE,108
560,65,X6,1,1,1,1,tv,8,5,0.625,249,4176,8.33710913,0,11001110,1,0.125,0.625,3,2,2,5,1,1,1,chose desirable,desirable fac.,"(3.34e+03,4.98e+03]",FALSE,326
561,66,X6,1,0,1,0,tv,18,9,0.5,2682,9680,9.17781718,0,1.10E+15,0,0,0.5,9,0,0,9,0,-1,1,chose desirable,undesirable fac.,"(8.01e+03,8.89e+04]",FALSE,330
562,67,X6,0,1,1,0,ph,8,3,0.375,851,4187,8.339739766,0,11000001,1,-0.125,0.625,5,-2,2,5,1,-1,-1,chose undesirable,undesirable fac.,"(3.34e+03,4.98e+03]",FALSE,337
563,68,X6,0,1,1,0,ph,6,1,0.166666667,806,3048,8.022240917,0,100000,1,-0.333333333,0.833333333,5,-4,4,5,1,-1,-1,chose undesirable,undesirable fac.,"(2.1e+03,3.34e+03]",FALSE,298
564,69,X6,1,1,1,1,tv,33,24,0.727272727,3852,17778,9.785717017,0,1.11E+32,1,0.227272727,0.727272727,9,15,15,24,1,1,1,chose desirable,desirable fac.,"(8.01e+03,8.89e+04]",FALSE,178
565,70,X6,1,1,1,1,tv,7,3,0.428571429,699,3691,8.213652703,0,101010,1,-0.071428571,0.428571429,4,-1,-1,3,1,1,1,chose desirable,desirable fac.,"(3.34e+03,4.98e+03]",FALSE,391
566,71,X6,1,0,0,1,ph,13,9,0.692307692,1295,6687,8.807920622,0,1.00E+12,1,0.192307692,0.692307692,4,5,5,9,1,1,1,chose desirable,desirable fac.,"(4.98e+03,8.01e+03]",FALSE,87
567,72,X6,0,0,0,0,tv,23,4,0.173913043,285,12578,9.439704535,0,1.10E+19,1,-0.326086957,0.826086957,19,-15,15,19,1,-1,-1,chose undesirable,undesirable fac.,"(8.01e+03,8.89e+04]",FALSE,478
568,73,X6,1,0,0,1,ph,4,3,0.75,333,2100,7.649692624,0,1101,1,0.25,0.75,1,2,2,3,1,1,1,chose desirable,desirable fac.,"(2.1e+03,3.34e+03]",FALSE,450
569,74,X6,1,1,0,0,ph,8,6,0.75,565,4267,8.358666283,0,111111,0,0.25,0.75,2,4,4,6,0,-1,1,chose desirable,undesirable fac.,"(3.34e+03,4.98e+03]",FALSE,417
570,75,X6,0,0,0,0,tv,10,4,0.4,705,5138,8.544419178,0,10011100,1,-0.1,0.6,6,-2,2,6,1,-1,-1,chose undesirable,undesirable fac.,"(4.98e+03,8.01e+03]",FALSE,188
571,76,X6,0,1,1,0,ph,17,7,0.411764706,742,8833,9.086249987,0,1.10E+14,1,-0.088235294,0.588235294,10,-3,3,10,1,-1,-1,chose undesirable,undesirable fac.,"(8.01e+03,8.89e+04]",FALSE,33
572,77,X6,1,1,1,1,tv,10,5,0.5,453,5146,8.545974993,0,1010001110,1,0,0.5,5,0,0,5,1,1,1,chose desirable,desirable fac.,"(4.98e+03,8.01e+03]",FALSE,196
573,78,X6,1,0,0,1,ph,7,6,0.857142857,503,3304,8.102889135,0,1101111,1,0.357142857,0.857142857,1,5,5,6,1,1,1,chose desirable,desirable fac.,"(2.1e+03,3.34e+03]",FALSE,4
574,79,X6,0,1,1,0,ph,4,1,0.25,952,1963,7.582229194,0,1,1,-0.25,0.75,3,-2,2,3,1,-1,-1,chose undesirable,undesirable fac.,"[7,2.1e+03]",FALSE,313
575,80,X6,0,1,1,0,ph,37,20,0.540540541,805,19947,9.900834035,0,1.10E+36,1,0.040540541,0.459459459,17,3,-3,17,1,-1,-1,chose undesirable,undesirable fac.,"(8.01e+03,8.89e+04]",FALSE,147
576,81,X6,0,1,1,0,ph,67,27,0.402985075,32419,36592,10.50758492,0,1.01E+62,1,-0.097014925,0.597014925,40,-13,13,40,1,-1,-1,chose undesirable,undesirable fac.,"(8.01e+03,8.89e+04]",FALSE,292
577,82,X6,0,1,1,0,ph,3,1,0.333333333,99,1289,7.161622003,0,1,1,-0.166666667,0.666666667,2,-1,1,2,1,-1,-1,chose undesirable,undesirable fac.,"[7,2.1e+03]",FALSE,189
578,83,X6,1,0,0,1,ph,3,3,1,528,1510,7.31986493,0,111,1,0.5,1,0,3,3,3,1,1,1,chose desirable,desirable fac.,"[7,2.1e+03]",FALSE,410
579,84,X6,0,0,0,0,tv,2,0,0,1799,888,6.788971743,0,0,1,-0.5,1,2,-2,2,2,1,-1,-1,chose undesirable,undesirable fac.,"[7,2.1e+03]",FALSE,338
580,85,X6,1,0,0,1,ph,27,16,0.592592593,1582,14351,9.571574905,0,1.00E+26,1,0.092592593,0.592592593,11,5,5,16,1,1,1,chose desirable,desirable fac.,"(8.01e+03,8.89e+04]",FALSE,51
581,86,X6,0,1,0,1,tv,4,1,0.25,622,2032,7.616775809,0,1000,0,-0.25,0.75,3,-2,2,3,0,1,-1,chose undesirable,desirable fac.,"[7,2.1e+03]",FALSE,382
582,87,X6,0,0,0,0,tv,8,4,0.5,1910,4284,8.362642432,0,10011010,1,0,0.5,4,0,0,4,1,-1,-1,chose undesirable,undesirable fac.,"(3.34e+03,4.98e+03]",FALSE,434
585,90,X6,1,1,0,0,ph,5,2,0.4,747,2321,7.749753406,0,1010,0,-0.1,0.4,3,-1,-1,2,0,-1,1,chose desirable,undesirable fac.,"(2.1e+03,3.34e+03]",FALSE,121
586,91,X6,1,1,1,1,tv,8,6,0.75,847,4056,8.307952545,0,11101101,1,0.25,0.75,2,4,4,6,1,1,1,chose desirable,desirable fac.,"(3.34e+03,4.98e+03]",FALSE,206
587,92,X6,0,1,0,1,tv,35,20,0.571428571,1143,19231,9.864278839,0,1.10E+34,0,0.071428571,0.428571429,15,5,-5,15,0,1,-1,chose undesirable,desirable fac.,"(8.01e+03,8.89e+04]",FALSE,531
588,93,X6,1,0,0,1,ph,10,5,0.5,345,5403,8.594709634,0,1101001010,1,0,0.5,5,0,0,5,1,1,1,chose desirable,desirable fac.,"(4.98e+03,8.01e+03]",FALSE,453
589,94,X6,1,0,1,0,tv,14,8,0.571428571,2967,7644,8.941676305,0,1.00E+13,0,0.071428571,0.571428571,6,2,2,8,0,-1,1,chose desirable,undesirable fac.,"(4.98e+03,8.01e+03]",FALSE,494
590,95,X6,1,1,1,1,tv,11,6,0.545454545,726,5599,8.630343289,0,11011000110,1,0.045454545,0.545454545,5,1,1,6,1,1,1,chose desirable,desirable fac.,"(4.98e+03,8.01e+03]",FALSE,99
591,96,X6,0,1,1,0,ph,26,11,0.423076923,1925,13793,9.531916496,0,1.01E+25,1,-0.076923077,0.576923077,15,-4,4,15,1,-1,-1,chose undesirable,undesirable fac.,"(8.01e+03,8.89e+04]",FALSE,43
592,97,X6,1,1,1,1,tv,7,5,0.714285714,1024,3545,8.173293439,3,110111,1,0.214285714,0.714285714,2,3,3,5,1,1,1,chose desirable,desirable fac.,"(3.34e+03,4.98e+03]",FALSE,245
593,98,X6,0,0,1,1,ph,5,2,0.4,776,2236,7.712443834,0,11,0,-0.1,0.6,3,-1,1,3,0,1,-1,chose undesirable,desirable fac.,"(2.1e+03,3.34e+03]",FALSE,36
594,99,X6,1,1,1,1,tv,16,10,0.625,1111,8416,9.037889935,0,1.10E+13,1,0.125,0.625,6,4,4,10,1,1,1,chose desirable,desirable fac.,"(8.01e+03,8.89e+04]",FALSE,166
595,1,X7,0,1,1,0,ph,7,3,0.428571429,685,3832,8.251142139,3,1000101,1,-0.071428571,0.571428571,4,-1,1,4,1,-1,-1,chose undesirable,undesirable fac.,"(3.34e+03,4.98e+03]",FALSE,532
596,2,X7,0,1,1,0,ph,15,5,0.333333333,668,7703,8.949365142,0,1.01E+13,1,-0.166666667,0.666666667,10,-5,5,10,1,-1,-1,chose undesirable,undesirable fac.,"(4.98e+03,8.01e+03]",FALSE,3
598,4,X7,0,1,1,0,ph,5,0,0,13954,2733,7.913155186,0,0,1,-0.5,1,5,-5,5,5,1,-1,-1,chose undesirable,undesirable fac.,"(2.1e+03,3.34e+03]",FALSE,533
600,6,X7,1,1,1,1,tv,6,4,0.666666667,741,3103,8.040124664,0,11110,1,0.166666667,0.666666667,2,2,2,4,1,1,1,chose desirable,desirable fac.,"(2.1e+03,3.34e+03]",FALSE,353
601,7,X7,0,0,0,0,tv,5,0,0,1727,2296,7.738923757,0,0,1,-0.5,1,5,-5,5,5,1,-1,-1,chose undesirable,undesirable fac.,"(2.1e+03,3.34e+03]",FALSE,96
602,8,X7,1,1,0,0,ph,6,4,0.666666667,1042,2892,7.969703583,0,111010,0,0.166666667,0.666666667,2,2,2,4,0,-1,1,chose desirable,undesirable fac.,"(2.1e+03,3.34e+03]",FALSE,142
603,9,X7,0,0,0,0,tv,13,4,0.307692308,2301,6704,8.810459642,4,1.10E+11,1,-0.192307692,0.692307692,9,-5,5,9,1,-1,-1,chose undesirable,undesirable fac.,"(4.98e+03,8.01e+03]",FALSE,104
604,10,X7,1,0,0,1,ph,16,11,0.6875,841,8299,9.023890305,0,1.11E+13,1,0.1875,0.6875,5,6,6,11,1,1,1,chose desirable,desirable fac.,"(8.01e+03,8.89e+04]",FALSE,49
605,11,X7,0,0,0,0,tv,5,1,0.2,590,2473,7.813187268,0,1000,1,-0.3,0.8,4,-3,3,4,1,-1,-1,chose undesirable,undesirable fac.,"(2.1e+03,3.34e+03]",FALSE,273
606,12,X7,1,0,0,1,ph,4,2,0.5,448,1933,7.566828479,0,110,1,0,0.5,2,0,0,2,1,1,1,chose desirable,desirable fac.,"[7,2.1e+03]",FALSE,283
607,13,X7,1,1,1,1,tv,8,7,0.875,1351,4086,8.315321775,0,11110111,1,0.375,0.875,1,6,6,7,1,1,1,chose desirable,desirable fac.,"(3.34e+03,4.98e+03]",FALSE,236
609,15,X7,0,1,1,0,ph,4,1,0.25,871,1848,7.521859252,2,1,1,-0.25,0.75,3,-2,2,3,1,-1,-1,chose undesirable,undesirable fac.,"[7,2.1e+03]",FALSE,198
613,19,X7,0,0,0,0,tv,9,2,0.222222222,1292,4800,8.476371197,4,110000000,1,-0.277777778,0.777777778,7,-5,5,7,1,-1,-1,chose undesirable,undesirable fac.,"(3.34e+03,4.98e+03]",FALSE,400
614,20,X7,1,0,0,1,ph,7,5,0.714285714,751,3472,8.152486076,0,101111,1,0.214285714,0.714285714,2,3,3,5,1,1,1,chose desirable,desirable fac.,"(3.34e+03,4.98e+03]",FALSE,172
615,21,X7,0,0,0,0,tv,8,4,0.5,25435,3941,8.279189777,0,1110001,1,0,0.5,4,0,0,4,1,-1,-1,chose undesirable,undesirable fac.,"(3.34e+03,4.98e+03]",FALSE,91
616,22,X7,0,1,0,1,tv,5,2,0.4,4135,2258,7.722234745,0,10010,0,-0.1,0.6,3,-1,1,3,0,1,-1,chose undesirable,desirable fac.,"(2.1e+03,3.34e+03]",FALSE,58
617,23,X7,1,1,1,1,tv,9,6,0.666666667,1055,4480,8.407378325,0,11010111,1,0.166666667,0.666666667,3,3,3,6,1,1,1,chose desirable,desirable fac.,"(3.34e+03,4.98e+03]",FALSE,80
618,24,X7,0,0,0,0,tv,7,2,0.285714286,113,3446,8.144969417,0,1100000,1,-0.214285714,0.714285714,5,-3,3,5,1,-1,-1,chose undesirable,undesirable fac.,"(3.34e+03,4.98e+03]",FALSE,146
620,26,X7,0,0,0,0,tv,20,5,0.25,2565,10866,9.293393927,1,1.00E+18,1,-0.25,0.75,15,-10,10,15,1,-1,-1,chose undesirable,undesirable fac.,"(8.01e+03,8.89e+04]",FALSE,416
621,27,X7,0,1,0,1,tv,7,2,0.285714286,382,3577,8.182279739,0,110000,0,-0.214285714,0.714285714,5,-3,3,5,0,1,-1,chose undesirable,desirable fac.,"(3.34e+03,4.98e+03]",FALSE,277
622,28,X7,1,1,1,1,tv,25,16,0.64,1091,13499,9.510370888,0,1.01E+22,1,0.14,0.64,9,7,7,16,1,1,1,chose desirable,desirable fac.,"(8.01e+03,8.89e+04]",FALSE,299
623,29,X7,0,1,1,0,ph,5,2,0.4,428,2412,7.788211558,0,101,1,-0.1,0.6,3,-1,1,3,1,-1,-1,chose undesirable,undesirable fac.,"(2.1e+03,3.34e+03]",FALSE,212
624,30,X7,0,1,1,0,ph,7,3,0.428571429,404,3668,8.207401833,0,1001001,1,-0.071428571,0.571428571,4,-1,1,4,1,-1,-1,chose undesirable,undesirable fac.,"(3.34e+03,4.98e+03]",FALSE,368
625,31,X7,0,0,0,0,tv,12,5,0.416666667,1623,6135,8.721765357,0,1.01E+11,1,-0.083333333,0.583333333,7,-2,2,7,1,-1,-1,chose undesirable,undesirable fac.,"(4.98e+03,8.01e+03]",FALSE,85
626,32,X7,0,0,0,0,tv,7,0,0,759,3536,8.170751424,0,0,1,-0.5,1,7,-7,7,7,1,-1,-1,chose undesirable,undesirable fac.,"(3.34e+03,4.98e+03]",FALSE,236
627,33,X7,1,1,1,1,tv,21,14,0.666666667,425,11128,9.317219734,0,1.11E+18,1,0.166666667,0.666666667,7,7,7,14,1,1,1,chose desirable,desirable fac.,"(8.01e+03,8.89e+04]",FALSE,128
628,34,X7,0,1,1,0,ph,14,5,0.357142857,478,7670,8.945071894,0,1.10E+13,1,-0.142857143,0.642857143,9,-4,4,9,1,-1,-1,chose undesirable,undesirable fac.,"(4.98e+03,8.01e+03]",FALSE,520
629,35,X7,1,1,0,0,ph,15,10,0.666666667,455,7974,8.983941528,0,1.11E+12,0,0.166666667,0.666666667,5,5,5,10,0,-1,1,chose desirable,undesirable fac.,"(4.98e+03,8.01e+03]",FALSE,274
630,36,X7,1,1,0,0,ph,10,8,0.8,1250,5068,8.530701541,0,1110111101,0,0.3,0.8,2,6,6,8,0,-1,1,chose desirable,undesirable fac.,"(4.98e+03,8.01e+03]",FALSE,118
631,37,X7,1,0,1,0,tv,11,4,0.363636364,512,5824,8.66974259,0,1100110,0,-0.136363636,0.363636364,7,-3,-3,4,0,-1,1,chose desirable,undesirable fac.,"(4.98e+03,8.01e+03]",FALSE,324
632,38,X7,0,1,0,1,tv,20,10,0.5,1452,10853,9.292196818,1,1.01E+19,0,0,0.5,10,0,0,10,0,1,-1,chose undesirable,desirable fac.,"(8.01e+03,8.89e+04]",FALSE,403
633,39,X7,0,1,1,0,ph,11,5,0.454545455,1090,5782,8.662504923,0,1010110100,1,-0.045454545,0.545454545,6,-1,1,6,1,-1,-1,chose undesirable,undesirable fac.,"(4.98e+03,8.01e+03]",FALSE,282
634,40,X7,1,1,0,0,ph,8,5,0.625,4677,4385,8.385944905,0,101111,0,0.125,0.625,3,2,2,5,0,-1,1,chose desirable,undesirable fac.,"(3.34e+03,4.98e+03]",FALSE,535
635,41,X7,1,1,1,1,tv,7,5,0.714285714,466,3409,8.134174272,0,101111,1,0.214285714,0.714285714,2,3,3,5,1,1,1,chose desirable,desirable fac.,"(3.34e+03,4.98e+03]",FALSE,109
636,42,X7,1,1,0,0,ph,6,4,0.666666667,470,3033,8.017307508,0,100111,0,0.166666667,0.666666667,2,2,2,4,0,-1,1,chose desirable,undesirable fac.,"(2.1e+03,3.34e+03]",FALSE,283
637,43,X7,1,1,0,0,ph,8,3,0.375,409,4054,8.307459327,0,100110,0,-0.125,0.375,5,-2,-2,3,0,-1,1,chose desirable,undesirable fac.,"(3.34e+03,4.98e+03]",FALSE,204
638,44,X7,0,0,0,0,tv,7,3,0.428571429,459,3768,8.234299636,0,1001010,1,-0.071428571,0.571428571,4,-1,1,4,1,-1,-1,chose undesirable,undesirable fac.,"(3.34e+03,4.98e+03]",FALSE,468
639,45,X7,1,0,0,1,ph,11,6,0.545454545,205,5873,8.678120856,0,11011110,1,0.045454545,0.545454545,5,1,1,6,1,1,1,chose desirable,desirable fac.,"(4.98e+03,8.01e+03]",FALSE,373
640,46,X7,1,1,1,1,tv,38,23,0.605263158,391,20429,9.924710739,2,1.01E+37,1,0.105263158,0.605263158,15,8,8,23,1,1,1,chose desirable,desirable fac.,"(8.01e+03,8.89e+04]",FALSE,79
641,47,X7,1,0,0,1,ph,9,7,0.777777778,1039,4703,8.455955882,0,11110111,1,0.277777778,0.777777778,2,5,5,7,1,1,1,chose desirable,desirable fac.,"(3.34e+03,4.98e+03]",FALSE,303
642,48,X7,1,0,1,0,tv,17,10,0.588235294,884,8818,9.084550366,0,1.01E+16,0,0.088235294,0.588235294,7,3,3,10,0,-1,1,chose desirable,undesirable fac.,"(8.01e+03,8.89e+04]",FALSE,18
643,49,X7,0,1,1,0,ph,7,2,0.285714286,457,3535,8.170468578,0,1100000,1,-0.214285714,0.714285714,5,-3,3,5,1,-1,-1,chose undesirable,undesirable fac.,"(3.34e+03,4.98e+03]",FALSE,235
644,50,X7,0,1,1,0,ph,13,2,0.153846154,2599,6617,8.797397374,0,100000100,1,-0.346153846,0.846153846,11,-9,9,11,1,-1,-1,chose undesirable,undesirable fac.,"(4.98e+03,8.01e+03]",FALSE,17
645,51,X7,1,0,1,0,tv,3,3,1,599,1632,7.397561536,0,111,0,0.5,1,0,3,3,3,0,-1,1,chose desirable,undesirable fac.,"[7,2.1e+03]",FALSE,532
646,52,X7,0,1,0,1,tv,23,9,0.391304348,2992,12275,9.415319953,13,1.00E+19,0,-0.108695652,0.608695652,14,-5,5,14,0,1,-1,chose undesirable,desirable fac.,"(8.01e+03,8.89e+04]",FALSE,175
647,53,X7,1,1,1,1,tv,8,7,0.875,425,4121,8.323851131,0,11101111,1,0.375,0.875,1,6,6,7,1,1,1,chose desirable,desirable fac.,"(3.34e+03,4.98e+03]",FALSE,271
649,55,X7,1,1,1,1,tv,12,7,0.583333333,499,6593,8.793763759,0,1.10E+11,1,0.083333333,0.583333333,5,2,2,7,1,1,1,chose desirable,desirable fac.,"(4.98e+03,8.01e+03]",FALSE,543
650,56,X7,0,0,0,0,tv,20,8,0.4,1192,10968,9.302737221,0,1.10E+19,1,-0.1,0.6,12,-4,4,12,1,-1,-1,chose undesirable,undesirable fac.,"(8.01e+03,8.89e+04]",FALSE,518
651,57,X7,1,0,0,1,ph,15,11,0.733333333,1206,7905,8.97525075,0,1.01E+14,1,0.233333333,0.733333333,4,7,7,11,1,1,1,chose desirable,desirable fac.,"(4.98e+03,8.01e+03]",FALSE,205
652,58,X7,0,0,0,0,tv,6,2,0.333333333,884,2753,7.920446505,0,101,1,-0.166666667,0.666666667,4,-2,2,4,1,-1,-1,chose undesirable,undesirable fac.,"(2.1e+03,3.34e+03]",FALSE,3
653,59,X7,1,1,1,1,tv,8,5,0.625,631,3872,8.261526448,0,10101110,1,0.125,0.625,3,2,2,5,1,1,1,chose desirable,desirable fac.,"(3.34e+03,4.98e+03]",FALSE,22
654,60,X7,0,0,0,0,tv,7,2,0.285714286,1614,3464,8.15017927,0,1000010,1,-0.214285714,0.714285714,5,-3,3,5,1,-1,-1,chose undesirable,undesirable fac.,"(3.34e+03,4.98e+03]",FALSE,164
656,62,X7,0,1,1,0,ph,17,8,0.470588235,1012,8834,9.086363192,0,1.10E+16,1,-0.029411765,0.529411765,9,-1,1,9,1,-1,-1,chose undesirable,undesirable fac.,"(8.01e+03,8.89e+04]",FALSE,34
657,63,X7,1,0,0,1,ph,12,9,0.75,1181,6233,8.737613037,0,1.01E+11,1,0.25,0.75,3,6,6,9,1,1,1,chose desirable,desirable fac.,"(4.98e+03,8.01e+03]",FALSE,183
658,64,X7,0,0,0,0,tv,7,0,0,183,3780,8.237479289,0,0,1,-0.5,1,7,-7,7,7,1,-1,-1,chose undesirable,undesirable fac.,"(3.34e+03,4.98e+03]",FALSE,480
659,65,X7,0,0,0,0,tv,13,7,0.538461538,1517,6696,8.809265612,0,1.00E+12,1,0.038461538,0.461538462,6,1,-1,6,1,-1,-1,chose undesirable,undesirable fac.,"(4.98e+03,8.01e+03]",FALSE,96
660,66,X7,1,0,1,0,tv,14,4,0.285714286,493,7216,8.884056062,0,10100011,0,-0.214285714,0.285714286,10,-6,-6,4,0,-1,1,chose desirable,undesirable fac.,"(4.98e+03,8.01e+03]",FALSE,66
661,67,X7,0,1,1,0,ph,14,5,0.357142857,914,7456,8.916774356,0,11100000101,1,-0.142857143,0.642857143,9,-4,4,9,1,-1,-1,chose undesirable,undesirable fac.,"(4.98e+03,8.01e+03]",FALSE,306
662,68,X7,0,1,1,0,ph,9,4,0.444444444,541,4848,8.486321528,0,111000001,1,-0.055555556,0.555555556,5,-1,1,5,1,-1,-1,chose undesirable,undesirable fac.,"(3.34e+03,4.98e+03]",FALSE,448
663,69,X7,0,0,0,0,tv,52,26,0.5,4654,28576,10.26032248,0,1.10E+51,1,0,0.5,26,0,0,26,1,-1,-1,chose undesirable,undesirable fac.,"(8.01e+03,8.89e+04]",FALSE,526
664,70,X7,0,0,0,0,tv,10,4,0.4,680,5126,8.542080907,0,100010101,1,-0.1,0.6,6,-2,2,6,1,-1,-1,chose undesirable,undesirable fac.,"(4.98e+03,8.01e+03]",FALSE,176
665,71,X7,0,1,1,0,ph,7,2,0.285714286,3896,3479,8.154500175,0,100100,1,-0.214285714,0.714285714,5,-3,3,5,1,-1,-1,chose undesirable,undesirable fac.,"(3.34e+03,4.98e+03]",FALSE,179
666,72,X7,0,0,0,0,tv,21,8,0.380952381,10016,11548,9.354267541,0,1.01E+17,1,-0.119047619,0.619047619,13,-5,5,13,1,-1,-1,chose undesirable,undesirable fac.,"(8.01e+03,8.89e+04]",FALSE,548
667,73,X7,1,0,0,1,ph,2,0,0,812,865,6.762729507,0,0,1,-0.5,0,2,-2,-2,0,1,1,1,chose desirable,desirable fac.,"[7,2.1e+03]",FALSE,315
668,74,X7,0,1,1,0,ph,23,9,0.391304348,430,12591,9.440737552,0,1.00E+21,1,-0.108695652,0.608695652,14,-5,5,14,1,-1,-1,chose undesirable,undesirable fac.,"(8.01e+03,8.89e+04]",FALSE,491
669,75,X7,0,0,0,0,tv,7,1,0.142857143,694,3419,8.13710339,0,100000,1,-0.357142857,0.857142857,6,-5,5,6,1,-1,-1,chose undesirable,undesirable fac.,"(3.34e+03,4.98e+03]",FALSE,119
670,76,X7,0,1,1,0,ph,13,6,0.461538462,669,6702,8.810161268,0,1.10E+12,1,-0.038461538,0.538461538,7,-1,1,7,1,-1,-1,chose undesirable,undesirable fac.,"(4.98e+03,8.01e+03]",FALSE,102
671,77,X7,1,0,1,0,tv,15,8,0.533333333,586,7905,8.97525075,0,1.01E+12,0,0.033333333,0.533333333,7,1,1,8,0,-1,1,chose desirable,undesirable fac.,"(4.98e+03,8.01e+03]",FALSE,205
672,78,X7,0,1,1,0,ph,12,5,0.416666667,568,6255,8.741136423,0,1.01E+11,1,-0.083333333,0.583333333,7,-2,2,7,1,-1,-1,chose undesirable,undesirable fac.,"(4.98e+03,8.01e+03]",FALSE,205
673,79,X7,0,1,1,0,ph,3,0,0,755,1411,7.252053952,0,0,1,-0.5,1,3,-3,3,3,1,-1,-1,chose undesirable,undesirable fac.,"[7,2.1e+03]",FALSE,311
674,80,X7,0,1,1,0,ph,19,10,0.526315789,538,10262,9.236203032,0,1.10E+18,1,0.026315789,0.473684211,9,1,-1,9,1,-1,-1,chose undesirable,undesirable fac.,"(8.01e+03,8.89e+04]",FALSE,362
675,81,X7,0,0,1,1,ph,52,24,0.461538462,169383,28457,10.25614945,1,1.10E+50,0,-0.038461538,0.538461538,28,-4,4,28,0,1,-1,chose undesirable,desirable fac.,"(8.01e+03,8.89e+04]",FALSE,407
676,82,X7,0,0,1,1,ph,6,2,0.333333333,1074,3236,8.082093278,0,11000,0,-0.166666667,0.666666667,4,-2,2,4,0,1,-1,chose undesirable,desirable fac.,"(2.1e+03,3.34e+03]",FALSE,486
