,ID,trial,chooseDes,whichWorld,chooseTV,desWorld,whatIsDes,seqLength,desCount,desProp,RT.lev,RT.raw,RT.log,aniFlagCount,outcomeDesSeq,correct,desPropC,evidForChoice,undesCount,desDiff,diffForChoice,itemsForChoiceCount,chooseDes.m,desWorldC,chooseDesC,chooseDesF,desWorldF,RTq5,timingFlag,timingRelative
2,2,X1,1,0,0,1,ph,6,5,0.833333333,727,3288,8.098034756,0,101111,1,0.333333333,0.833333333,1,4,4,5,1,1,1,chose desirable,desirable fac.,"(2.26e+03,3.81e+03]",FALSE,538
3,3,X1,1,0,0,1,ph,10,6,0.6,908,5449,8.603187385,0,111010011,1,0.1,0.6,4,2,2,6,1,1,1,chose desirable,desirable fac.,"(3.81e+03,5.83e+03]",FALSE,499
4,4,X1,0,1,1,0,ph,56,27,0.482142857,2895,30577,10.32800337,0,1.01E+53,1,-0.017857143,0.517857143,29,-2,2,29,1,-1,-1,chose undesirable,undesirable fac.,"(9.1e+03,1.77e+05]",FALSE,327
6,6,X1,1,0,0,1,ph,10,6,0.6,1386,5284,8.572438666,0,1100011110,1,0.1,0.6,4,2,2,6,1,1,1,chose desirable,desirable fac.,"(3.81e+03,5.83e+03]",FALSE,334
7,7,X1,1,0,1,0,tv,8,5,0.625,519,4137,8.327726166,0,11111,0,0.125,0.625,3,2,2,5,0,-1,1,chose desirable,undesirable fac.,"(3.81e+03,5.83e+03]",FALSE,287
8,8,X1,1,1,1,1,tv,9,6,0.666666667,1056,4840,8.48467,0,100111110,1,0.166666667,0.666666667,3,3,3,6,1,1,1,chose desirable,desirable fac.,"(3.81e+03,5.83e+03]",FALSE,440
9,9,X1,0,1,1,0,ph,21,9,0.428571429,1203,11540,9.35357454,1,1.01E+20,1,-0.071428571,0.571428571,12,-3,3,12,1,-1,-1,chose undesirable,undesirable fac.,"(9.1e+03,1.77e+05]",FALSE,540
11,11,X1,1,1,0,0,ph,8,3,0.375,1153,3912,8.271804031,0,11100000,0,-0.125,0.375,5,-2,-2,3,0,-1,1,chose desirable,undesirable fac.,"(3.81e+03,5.83e+03]",FALSE,62
12,12,X1,1,1,1,1,tv,27,13,0.481481481,1581,14546,9.585071321,0,1.10E+25,1,-0.018518519,0.481481481,14,-1,-1,13,1,1,1,chose desirable,desirable fac.,"(9.1e+03,1.77e+05]",FALSE,246
14,14,X1,0,1,1,0,ph,7,3,0.428571429,2912,3554,8.175829009,0,1100010,1,-0.071428571,0.571428571,4,-1,1,4,1,-1,-1,chose undesirable,undesirable fac.,"(2.26e+03,3.81e+03]",FALSE,254
15,15,X1,0,0,0,0,tv,14,5,0.357142857,3115,7253,8.889170455,0,1.11E+11,1,-0.142857143,0.642857143,9,-4,4,9,1,-1,-1,chose undesirable,undesirable fac.,"(5.83e+03,9.1e+03]",FALSE,103
16,16,X1,0,0,0,0,tv,17,6,0.352941176,1407,9296,9.137339479,0,1.10E+14,1,-0.147058824,0.647058824,11,-5,5,11,1,-1,-1,chose undesirable,undesirable fac.,"(9.1e+03,1.77e+05]",FALSE,496
17,17,X1,1,1,0,0,ph,8,5,0.625,4073,4056,8.307952545,0,11001110,0,0.125,0.625,3,2,2,5,0,-1,1,chose desirable,undesirable fac.,"(3.81e+03,5.83e+03]",FALSE,206
18,18,X1,1,0,1,0,tv,21,12,0.571428571,1725,11416,9.342771159,0,1.00E+20,0,0.071428571,0.571428571,9,3,3,12,0,-1,1,chose desirable,undesirable fac.,"(9.1e+03,1.77e+05]",FALSE,416
19,19,X1,1,1,0,0,ph,14,8,0.571428571,3102,7232,8.886270902,0,1.00E+13,0,0.071428571,0.571428571,6,2,2,8,0,-1,1,chose desirable,undesirable fac.,"(5.83e+03,9.1e+03]",FALSE,82
20,20,X1,1,0,0,1,ph,21,14,0.666666667,2332,11520,9.351839934,0,1.01E+20,1,0.166666667,0.666666667,7,7,7,14,1,1,1,chose desirable,desirable fac.,"(9.1e+03,1.77e+05]",FALSE,520
22,22,X1,0,1,1,0,ph,7,2,0.285714286,910,3697,8.215276959,0,1001000,1,-0.214285714,0.714285714,5,-3,3,5,1,-1,-1,chose undesirable,undesirable fac.,"(2.26e+03,3.81e+03]",FALSE,397
24,24,X1,0,0,0,0,tv,17,7,0.411764706,1680,9324,9.140347,8,1.01E+16,1,-0.088235294,0.588235294,10,-3,3,10,1,-1,-1,chose undesirable,undesirable fac.,"(9.1e+03,1.77e+05]",FALSE,524
25,25,X1,1,1,1,1,tv,6,5,0.833333333,1767,2929,7.982416347,0,11111,1,0.333333333,0.833333333,1,4,4,5,1,1,1,chose desirable,desirable fac.,"(2.26e+03,3.81e+03]",FALSE,179
26,26,X1,1,1,1,1,tv,28,16,0.571428571,2044,15353,9.639066174,9,1.11E+27,1,0.071428571,0.571428571,12,4,4,16,1,1,1,chose desirable,desirable fac.,"(9.1e+03,1.77e+05]",FALSE,503
27,27,X1,0,1,1,0,ph,17,6,0.352941176,2611,8873,9.090768237,0,1.10E+13,1,-0.147058824,0.647058824,11,-5,5,11,1,-1,-1,chose undesirable,undesirable fac.,"(5.83e+03,9.1e+03]",FALSE,73
28,28,X1,0,0,0,0,tv,10,5,0.5,929,5414,8.59674347,1,110001011,1,0,0.5,5,0,0,5,1,-1,-1,chose undesirable,undesirable fac.,"(3.81e+03,5.83e+03]",FALSE,464
29,29,X1,1,1,1,1,tv,20,14,0.7,1627,10893,9.29587566,0,1.01E+17,1,0.2,0.7,6,8,8,14,1,1,1,chose desirable,desirable fac.,"(9.1e+03,1.77e+05]",FALSE,443
31,31,X1,0,1,1,0,ph,14,3,0.214285714,3385,7353,8.902863672,0,1.00E+13,1,-0.285714286,0.785714286,11,-8,8,11,1,-1,-1,chose undesirable,undesirable fac.,"(5.83e+03,9.1e+03]",FALSE,203
32,32,X1,0,1,1,0,ph,31,14,0.451612903,1037,16976,9.739555861,0,1.10E+29,1,-0.048387097,0.548387097,17,-3,3,17,1,-1,-1,chose undesirable,undesirable fac.,"(9.1e+03,1.77e+05]",FALSE,476
33,33,X1,0,1,1,0,ph,15,4,0.266666667,2796,8167,9.007856923,0,1.01E+13,1,-0.233333333,0.733333333,11,-7,7,11,1,-1,-1,chose undesirable,undesirable fac.,"(5.83e+03,9.1e+03]",FALSE,467
34,34,X1,1,0,1,0,tv,9,6,0.666666667,1077,4480,8.407378325,0,11001111,0,0.166666667,0.666666667,3,3,3,6,0,-1,1,chose desirable,undesirable fac.,"(3.81e+03,5.83e+03]",FALSE,80
37,37,X1,0,0,0,0,tv,16,7,0.4375,1462,8619,9.061724348,0,1.01E+13,1,-0.0625,0.5625,9,-2,2,9,1,-1,-1,chose undesirable,undesirable fac.,"(5.83e+03,9.1e+03]",FALSE,369
38,38,X1,1,1,1,1,tv,8,6,0.75,945,4024,8.300031712,0,11110101,1,0.25,0.75,2,4,4,6,1,1,1,chose desirable,desirable fac.,"(3.81e+03,5.83e+03]",FALSE,174
39,39,X1,0,1,0,1,tv,13,4,0.307692308,1045,6841,8.830689199,0,1.00E+12,0,-0.192307692,0.692307692,9,-5,5,9,0,1,-1,chose undesirable,desirable fac.,"(5.83e+03,9.1e+03]",FALSE,241
40,40,X1,1,0,0,1,ph,12,9,0.75,3058,6087,8.713910628,0,1.10E+11,1,0.25,0.75,3,6,6,9,1,1,1,chose desirable,desirable fac.,"(5.83e+03,9.1e+03]",FALSE,37
41,41,X1,1,1,0,0,ph,23,13,0.565217391,1648,12464,9.430599768,2,1.00E+19,0,0.065217391,0.565217391,10,3,3,13,0,-1,1,chose desirable,undesirable fac.,"(9.1e+03,1.77e+05]",FALSE,364
42,42,X1,0,1,1,0,ph,7,0,0,3023,3845,8.254528882,0,0,1,-0.5,1,7,-7,7,7,1,-1,-1,chose undesirable,undesirable fac.,"(3.81e+03,5.83e+03]",FALSE,545
43,43,X1,1,0,0,1,ph,4,3,0.75,2091,1815,7.503840747,0,1110,1,0.25,0.75,1,2,2,3,1,1,1,chose desirable,desirable fac.,"[0,2.26e+03]",FALSE,165
44,44,X1,1,1,1,1,tv,4,3,0.75,1094,2044,7.622663951,0,1110,1,0.25,0.75,1,2,2,3,1,1,1,chose desirable,desirable fac.,"[0,2.26e+03]",FALSE,394
45,45,X1,1,1,1,1,tv,40,23,0.575,6189,21945,9.996294602,0,1.11E+39,1,0.075,0.575,17,6,6,23,1,1,1,chose desirable,desirable fac.,"(9.1e+03,1.77e+05]",FALSE,495
46,46,X1,1,1,1,1,tv,17,11,0.647058824,2225,8838,9.086815886,0,1.11E+14,1,0.147058824,0.647058824,6,5,5,11,1,1,1,chose desirable,desirable fac.,"(5.83e+03,9.1e+03]",FALSE,38
47,47,X1,0,0,1,1,ph,12,4,0.333333333,1187,6380,8.760923376,0,11001100000,0,-0.166666667,0.666666667,8,-4,4,8,0,1,-1,chose undesirable,desirable fac.,"(5.83e+03,9.1e+03]",FALSE,330
48,48,X1,0,0,0,0,tv,21,8,0.380952381,1879,11279,9.330697869,10,1.10E+19,1,-0.119047619,0.619047619,13,-5,5,13,1,-1,-1,chose undesirable,undesirable fac.,"(9.1e+03,1.77e+05]",FALSE,279
49,49,X1,0,1,1,0,ph,22,11,0.5,2320,11991,9.391911647,0,1.10E+18,1,0,0.5,11,0,0,11,1,-1,-1,chose undesirable,undesirable fac.,"(9.1e+03,1.77e+05]",FALSE,441
50,50,X1,1,1,0,0,ph,11,6,0.545454545,2576,5579,8.626764828,0,10110111000,0,0.045454545,0.545454545,5,1,1,6,0,-1,1,chose desirable,undesirable fac.,"(3.81e+03,5.83e+03]",FALSE,79
51,51,X1,1,0,1,0,tv,56,30,0.535714286,1495,30696,10.33188763,6,1.11E+54,0,0.035714286,0.535714286,26,4,4,30,0,-1,1,chose desirable,undesirable fac.,"(9.1e+03,1.77e+05]",FALSE,446
53,53,X1,0,0,0,0,tv,8,2,0.25,1555,4377,8.384118837,0,100100,1,-0.25,0.75,6,-4,4,6,1,-1,-1,chose undesirable,undesirable fac.,"(3.81e+03,5.83e+03]",FALSE,527
54,54,X1,1,0,0,1,ph,11,8,0.727272727,838,5665,8.642062173,0,11011001111,1,0.227272727,0.727272727,3,5,5,8,1,1,1,chose desirable,desirable fac.,"(3.81e+03,5.83e+03]",FALSE,165
55,55,X1,0,0,0,0,tv,23,10,0.434782609,5715,12446,9.429154565,0,1.01E+21,1,-0.065217391,0.565217391,13,-3,3,13,1,-1,-1,chose undesirable,undesirable fac.,"(9.1e+03,1.77e+05]",FALSE,346
56,56,X1,1,0,1,0,tv,50,24,0.48,5183,27322,10.21544752,1,1.11E+48,0,-0.02,0.48,26,-2,-2,24,0,-1,1,chose desirable,undesirable fac.,"(9.1e+03,1.77e+05]",FALSE,372
58,58,X1,0,0,0,0,tv,16,8,0.5,2130,8462,9.043340831,0,1.11E+13,1,0,0.5,8,0,0,8,1,-1,-1,chose undesirable,undesirable fac.,"(5.83e+03,9.1e+03]",FALSE,212
59,59,X1,1,0,0,1,ph,8,5,0.625,1715,4267,8.358666283,0,1111100,1,0.125,0.625,3,2,2,5,1,1,1,chose desirable,desirable fac.,"(3.81e+03,5.83e+03]",FALSE,417
60,60,X1,1,1,1,1,tv,4,4,1,1114,2021,7.611347717,0,1111,1,0.5,1,0,4,4,4,1,1,1,chose desirable,desirable fac.,"[0,2.26e+03]",FALSE,371
61,61,X1,1,1,1,1,tv,6,4,0.666666667,590,2913,7.976938757,0,110110,1,0.166666667,0.666666667,2,2,2,4,1,1,1,chose desirable,desirable fac.,"(2.26e+03,3.81e+03]",FALSE,163
62,62,X1,1,1,1,1,tv,18,12,0.666666667,1886,9561,9.165447603,0,1.11E+17,1,0.166666667,0.666666667,6,6,6,12,1,1,1,chose desirable,desirable fac.,"(9.1e+03,1.77e+05]",FALSE,211
63,63,X1,1,1,1,1,tv,35,18,0.514285714,661,18944,9.849242538,0,1.00E+33,1,0.014285714,0.514285714,17,1,1,18,1,1,1,chose desirable,desirable fac.,"(9.1e+03,1.77e+05]",FALSE,244
64,64,X1,1,1,1,1,tv,11,6,0.545454545,3304,5721,8.651898894,0,10001011110,1,0.045454545,0.545454545,5,1,1,6,1,1,1,chose desirable,desirable fac.,"(3.81e+03,5.83e+03]",FALSE,221
65,65,X1,0,0,0,0,tv,15,4,0.266666667,799,8066,8.995412975,0,1.00E+11,1,-0.233333333,0.733333333,11,-7,7,11,1,-1,-1,chose undesirable,undesirable fac.,"(5.83e+03,9.1e+03]",FALSE,366
66,66,X1,1,1,0,0,ph,4,2,0.5,3024,1853,7.524561226,0,110,0,0,0.5,2,0,0,2,0,-1,1,chose desirable,undesirable fac.,"[0,2.26e+03]",FALSE,203
67,67,X1,1,0,0,1,ph,9,5,0.555555556,1399,4465,8.404024493,0,11110010,1,0.055555556,0.555555556,4,1,1,5,1,1,1,chose desirable,desirable fac.,"(3.81e+03,5.83e+03]",FALSE,65
68,68,X1,0,0,0,0,tv,3,0,0,1414,1408,7.249925537,0,0,1,-0.5,1,3,-3,3,3,1,-1,-1,chose undesirable,undesirable fac.,"[0,2.26e+03]",FALSE,308
69,69,X1,1,1,1,1,tv,18,11,0.611111111,3703,9552,9.164505836,0,1.10E+17,1,0.111111111,0.611111111,7,4,4,11,1,1,1,chose desirable,desirable fac.,"(9.1e+03,1.77e+05]",FALSE,202
70,70,X1,0,1,1,0,ph,8,1,0.125,1759,3913,8.272059622,0,10000,1,-0.375,0.875,7,-6,6,7,1,-1,-1,chose undesirable,undesirable fac.,"(3.81e+03,5.83e+03]",FALSE,63
71,71,X1,0,1,1,0,ph,6,3,0.5,2028,3253,8.087332926,0,100011,1,0,0.5,3,0,0,3,1,-1,-1,chose undesirable,undesirable fac.,"(2.26e+03,3.81e+03]",FALSE,503
72,72,X1,1,0,0,1,ph,8,6,0.75,1423,4128,8.325548307,0,10111011,1,0.25,0.75,2,4,4,6,1,1,1,chose desirable,desirable fac.,"(3.81e+03,5.83e+03]",FALSE,278
73,73,X1,1,0,0,1,ph,22,11,0.5,764,11879,9.382527414,0,1.10E+21,1,0,0.5,11,0,0,11,1,1,1,chose desirable,desirable fac.,"(9.1e+03,1.77e+05]",FALSE,329
74,74,X1,1,0,0,1,ph,7,4,0.571428571,2128,3479,8.154500175,0,1011100,1,0.071428571,0.571428571,3,1,1,4,1,1,1,chose desirable,desirable fac.,"(2.26e+03,3.81e+03]",FALSE,179
75,75,X1,0,1,1,0,ph,21,9,0.428571429,2784,11119,9.316410636,0,1.10E+18,1,-0.071428571,0.571428571,12,-3,3,12,1,-1,-1,chose undesirable,undesirable fac.,"(9.1e+03,1.77e+05]",FALSE,119
76,76,X1,1,0,0,1,ph,25,15,0.6,502,13344,9.498822125,0,1.00E+22,1,0.1,0.6,10,5,5,15,1,1,1,chose desirable,desirable fac.,"(9.1e+03,1.77e+05]",FALSE,144
78,78,X1,1,1,0,0,ph,4,2,0.5,2966,2016,7.608870629,0,110,0,0,0.5,2,0,0,2,0,-1,1,chose desirable,undesirable fac.,"[0,2.26e+03]",FALSE,366
79,79,X1,0,1,1,0,ph,2,1,0.5,1577,625,6.43775165,0,10,1,0,0.5,1,0,0,1,1,-1,-1,chose undesirable,undesirable fac.,"[0,2.26e+03]",FALSE,75
80,80,X1,0,0,0,0,tv,12,3,0.25,977,6054,8.70847449,0,10010100000,1,-0.25,0.75,9,-6,6,9,1,-1,-1,chose undesirable,undesirable fac.,"(5.83e+03,9.1e+03]",FALSE,4
81,81,X1,0,0,0,0,tv,57,24,0.421052632,4743,30888,10.33812304,0,1.10E+52,1,-0.078947368,0.578947368,33,-9,9,33,1,-1,-1,chose undesirable,undesirable fac.,"(9.1e+03,1.77e+05]",FALSE,88
82,82,X1,1,0,0,1,ph,11,7,0.636363636,4324,5651,8.6395878,0,11011110010,1,0.136363636,0.636363636,4,3,3,7,1,1,1,chose desirable,desirable fac.,"(3.81e+03,5.83e+03]",FALSE,151
83,83,X1,1,0,0,1,ph,16,9,0.5625,2053,8568,9.055789612,0,1.01E+15,1,0.0625,0.5625,7,2,2,9,1,1,1,chose desirable,desirable fac.,"(5.83e+03,9.1e+03]",FALSE,318
84,84,X1,1,0,0,1,ph,9,7,0.777777778,1600,4919,8.500860537,0,10111111,1,0.277777778,0.777777778,2,5,5,7,1,1,1,chose desirable,desirable fac.,"(3.81e+03,5.83e+03]",FALSE,519
85,85,X1,1,1,1,1,tv,10,7,0.7,1309,4995,8.516192691,3,1010101111,1,0.2,0.7,3,4,4,7,1,1,1,chose desirable,desirable fac.,"(3.81e+03,5.83e+03]",FALSE,45
86,86,X1,1,1,1,1,tv,10,6,0.6,2774,4980,8.51318517,2,1101001101,1,0.1,0.6,4,2,2,6,1,1,1,chose desirable,desirable fac.,"(3.81e+03,5.83e+03]",FALSE,30
88,88,X1,1,0,0,1,ph,7,5,0.714285714,2241,3400,8.131530711,5,1011101,1,0.214285714,0.714285714,2,3,3,5,1,1,1,chose desirable,desirable fac.,"(2.26e+03,3.81e+03]",FALSE,100
89,89,X1,1,0,0,1,ph,16,9,0.5625,1140,8431,9.039670668,0,1.00E+15,1,0.0625,0.5625,7,2,2,9,1,1,1,chose desirable,desirable fac.,"(5.83e+03,9.1e+03]",FALSE,181
90,90,X1,1,0,0,1,ph,9,6,0.666666667,1535,4658,8.44634145,0,111100011,1,0.166666667,0.666666667,3,3,3,6,1,1,1,chose desirable,desirable fac.,"(3.81e+03,5.83e+03]",FALSE,258
92,92,X1,1,0,1,0,tv,17,8,0.470588235,1319,9240,9.131297165,0,1.10E+16,0,-0.029411765,0.470588235,9,-1,-1,8,0,-1,1,chose desirable,undesirable fac.,"(9.1e+03,1.77e+05]",FALSE,440
93,93,X1,0,1,1,0,ph,32,10,0.3125,1556,17508,9.770413198,0,1.01E+30,1,-0.1875,0.6875,22,-12,12,22,1,-1,-1,chose undesirable,undesirable fac.,"(9.1e+03,1.77e+05]",FALSE,458
94,94,X1,0,1,0,1,tv,9,4,0.444444444,2288,4862,8.489205155,0,101010001,0,-0.055555556,0.555555556,5,-1,1,5,0,1,-1,chose undesirable,desirable fac.,"(3.81e+03,5.83e+03]",FALSE,462
95,95,X1,1,0,0,1,ph,6,4,0.666666667,2993,2883,7.966586698,0,101110,1,0.166666667,0.666666667,2,2,2,4,1,1,1,chose desirable,desirable fac.,"(2.26e+03,3.81e+03]",FALSE,133
96,96,X1,0,1,0,1,tv,13,7,0.538461538,3583,6916,8.841592847,0,1.00E+12,0,0.038461538,0.461538462,6,1,-1,6,0,1,-1,chose undesirable,desirable fac.,"(5.83e+03,9.1e+03]",FALSE,316
97,97,X1,1,1,0,0,ph,19,10,0.526315789,7047,10151,9.225327502,0,1.11E+18,0,0.026315789,0.526315789,9,1,1,10,0,-1,1,chose desirable,undesirable fac.,"(9.1e+03,1.77e+05]",FALSE,251
98,98,X1,1,1,1,1,tv,21,9,0.428571429,2794,11182,9.322060622,0,1.11E+19,1,-0.071428571,0.428571429,12,-3,-3,9,1,1,1,chose desirable,desirable fac.,"(9.1e+03,1.77e+05]",FALSE,182
99,99,X1,1,0,0,1,ph,12,8,0.666666667,1480,6383,8.761393485,3,1.01E+11,1,0.166666667,0.666666667,4,4,4,8,1,1,1,chose desirable,desirable fac.,"(5.83e+03,9.1e+03]",FALSE,333
100,100,X1,0,1,1,0,ph,10,3,0.3,1333,5450,8.603370888,1,1000110000,1,-0.2,0.7,7,-4,4,7,1,-1,-1,chose undesirable,undesirable fac.,"(3.81e+03,5.83e+03]",FALSE,500
102,2,X2,1,1,0,0,ph,14,8,0.571428571,715,7164,8.876823763,0,1.10E+13,0,0.071428571,0.571428571,6,2,2,8,0,-1,1,chose desirable,undesirable fac.,"(5.83e+03,9.1e+03]",FALSE,14
103,3,X2,0,1,1,0,ph,16,7,0.4375,1678,8368,9.032170186,0,1.11E+15,1,-0.0625,0.5625,9,-2,2,9,1,-1,-1,chose undesirable,undesirable fac.,"(5.83e+03,9.1e+03]",FALSE,118
104,4,X2,0,1,1,0,ph,20,7,0.35,1605,10812,9.288411907,0,1.00E+19,1,-0.15,0.65,13,-6,6,13,1,-1,-1,chose undesirable,undesirable fac.,"(9.1e+03,1.77e+05]",FALSE,362
106,6,X2,0,1,1,0,ph,9,2,0.222222222,1325,4465,8.404024493,0,10001000,1,-0.277777778,0.777777778,7,-5,5,7,1,-1,-1,chose undesirable,undesirable fac.,"(3.81e+03,5.83e+03]",FALSE,65
107,7,X2,0,0,0,0,tv,3,0,0,391,1271,7.147559271,0,0,1,-0.5,1,3,-3,3,3,1,-1,-1,chose undesirable,undesirable fac.,"[0,2.26e+03]",FALSE,171
108,8,X2,0,0,0,0,tv,5,0,0,598,2567,7.850493181,0,0,1,-0.5,1,5,-5,5,5,1,-1,-1,chose undesirable,undesirable fac.,"(2.26e+03,3.81e+03]",FALSE,367
109,9,X2,1,1,0,0,ph,23,11,0.47826087,1037,12389,9.424564261,3,1.00E+22,0,-0.02173913,0.47826087,12,-1,-1,11,0,-1,1,chose desirable,undesirable fac.,"(9.1e+03,1.77e+05]",FALSE,289
111,11,X2,0,1,1,0,ph,14,4,0.285714286,1865,7173,8.878079256,0,110011000,1,-0.214285714,0.714285714,10,-6,6,10,1,-1,-1,chose undesirable,undesirable fac.,"(5.83e+03,9.1e+03]",FALSE,23
112,12,X2,0,0,0,0,tv,8,3,0.375,835,4081,8.314097335,0,1011,1,-0.125,0.625,5,-2,2,5,1,-1,-1,chose undesirable,undesirable fac.,"(3.81e+03,5.83e+03]",FALSE,231
113,13,X2,1,1,1,1,tv,31,15,0.483870968,1638,16523,9.712508629,2,1.11E+29,1,-0.016129032,0.483870968,16,-1,-1,15,1,1,1,chose desirable,desirable fac.,"(9.1e+03,1.77e+05]",FALSE,23
114,14,X2,1,0,0,1,ph,11,6,0.545454545,2273,5592,8.629092284,0,11000111100,1,0.045454545,0.545454545,5,1,1,6,1,1,1,chose desirable,desirable fac.,"(3.81e+03,5.83e+03]",FALSE,92
115,15,X2,0,0,0,0,tv,17,6,0.352941176,43,8915,9.09549053,0,1.11E+14,1,-0.147058824,0.647058824,11,-5,5,11,1,-1,-1,chose undesirable,undesirable fac.,"(5.83e+03,9.1e+03]",FALSE,115
116,16,X2,0,1,0,1,tv,19,10,0.526315789,1183,10094,9.219696467,0,1.00E+18,0,0.026315789,0.473684211,9,1,-1,9,0,1,-1,chose undesirable,desirable fac.,"(9.1e+03,1.77e+05]",FALSE,194
117,17,X2,1,0,0,1,ph,29,14,0.482758621,709,15770,9.66586468,0,1.11E+27,1,-0.017241379,0.482758621,15,-1,-1,14,1,1,1,chose desirable,desirable fac.,"(9.1e+03,1.77e+05]",FALSE,370
118,18,X2,0,0,0,0,tv,14,6,0.428571429,2116,7528,8.926384681,0,1.11E+12,1,-0.071428571,0.571428571,8,-2,2,8,1,-1,-1,chose undesirable,undesirable fac.,"(5.83e+03,9.1e+03]",FALSE,378
119,19,X2,1,1,0,0,ph,19,9,0.473684211,1352,10344,9.24416192,0,1.01E+17,0,-0.026315789,0.473684211,10,-1,-1,9,0,-1,1,chose desirable,undesirable fac.,"(9.1e+03,1.77e+05]",FALSE,444
120,20,X2,0,1,1,0,ph,36,17,0.472222222,847,19616,9.884100839,0,1.11E+34,1,-0.027777778,0.527777778,19,-2,2,19,1,-1,-1,chose undesirable,undesirable fac.,"(9.1e+03,1.77e+05]",FALSE,366
121,21,X2,0,1,0,1,tv,16,7,0.4375,1432,8482,9.04570155,3,1.11E+13,0,-0.0625,0.5625,9,-2,2,9,0,1,-1,chose undesirable,desirable fac.,"(5.83e+03,9.1e+03]",FALSE,232
122,22,X2,0,1,1,0,ph,6,1,0.166666667,29,3120,8.045588281,0,1000,1,-0.333333333,0.833333333,5,-4,4,5,1,-1,-1,chose undesirable,undesirable fac.,"(2.26e+03,3.81e+03]",FALSE,370
123,23,X2,0,1,1,0,ph,22,8,0.363636364,2737,12038,9.395823592,0,1.00E+21,1,-0.136363636,0.636363636,14,-6,6,14,1,-1,-1,chose undesirable,undesirable fac.,"(9.1e+03,1.77e+05]",FALSE,488
124,24,X2,1,0,1,0,tv,27,14,0.518518519,849,14408,9.575538887,13,1.00E+25,0,0.018518519,0.518518519,13,1,1,14,0,-1,1,chose desirable,undesirable fac.,"(9.1e+03,1.77e+05]",FALSE,108
125,25,X2,0,0,0,0,tv,4,1,0.25,646,1905,7.552237288,0,1,1,-0.25,0.75,3,-2,2,3,1,-1,-1,chose undesirable,undesirable fac.,"[0,2.26e+03]",FALSE,255
126,26,X2,0,1,0,1,tv,34,18,0.529411765,3432,18221,9.810330054,6,1.11E+33,0,0.029411765,0.470588235,16,2,-2,16,0,1,-1,chose undesirable,desirable fac.,"(9.1e+03,1.77e+05]",FALSE,71
127,27,X2,1,0,0,1,ph,17,10,0.588235294,1814,9023,9.107532152,0,1.10E+14,1,0.088235294,0.588235294,7,3,3,10,1,1,1,chose desirable,desirable fac.,"(5.83e+03,9.1e+03]",FALSE,223
128,28,X2,1,1,1,1,tv,10,8,0.8,1164,5330,8.581106517,0,1110011111,1,0.3,0.8,2,6,6,8,1,1,1,chose desirable,desirable fac.,"(3.81e+03,5.83e+03]",FALSE,380
129,29,X2,1,1,1,1,tv,58,35,0.603448276,1046,31639,10.36214582,0,1.11E+57,1,0.103448276,0.603448276,23,12,12,35,1,1,1,chose desirable,desirable fac.,"(9.1e+03,1.77e+05]",FALSE,289
130,30,X2,0,1,1,0,ph,16,3,0.1875,2745,8615,9.061260149,10,1.00E+14,1,-0.3125,0.8125,13,-10,10,13,1,-1,-1,chose undesirable,undesirable fac.,"(5.83e+03,9.1e+03]",FALSE,365
131,31,X2,0,1,1,0,ph,28,8,0.285714286,1174,15240,9.631678829,0,1.00E+27,1,-0.214285714,0.714285714,20,-12,12,20,1,-1,-1,chose undesirable,undesirable fac.,"(9.1e+03,1.77e+05]",FALSE,390
132,32,X2,0,1,1,0,ph,21,9,0.428571429,1398,11328,9.335032816,0,1.00E+20,1,-0.071428571,0.571428571,12,-3,3,12,1,-1,-1,chose undesirable,undesirable fac.,"(9.1e+03,1.77e+05]",FALSE,328
133,33,X2,1,0,0,1,ph,11,6,0.545454545,1319,6050,8.707813551,0,1001111100,1,0.045454545,0.545454545,5,1,1,6,1,1,1,chose desirable,desirable fac.,"(5.83e+03,9.1e+03]",FALSE,550
134,34,X2,0,0,0,0,tv,7,0,0,1319,3350,8.116715625,1,0,1,-0.5,1,7,-7,7,7,1,-1,-1,chose undesirable,undesirable fac.,"(2.26e+03,3.81e+03]",FALSE,50
137,37,X2,1,1,1,1,tv,21,15,0.714285714,1303,11219,9.325364049,0,1.11E+20,1,0.214285714,0.714285714,6,9,9,15,1,1,1,chose desirable,desirable fac.,"(9.1e+03,1.77e+05]",FALSE,219
138,38,X2,1,1,1,1,tv,15,9,0.6,1696,7803,8.962263554,0,1.11E+12,1,0.1,0.6,6,3,3,9,1,1,1,chose desirable,desirable fac.,"(5.83e+03,9.1e+03]",FALSE,103
139,39,X2,1,1,1,1,tv,10,8,0.8,1586,5382,8.590815331,0,1010111111,1,0.3,0.8,2,6,6,8,1,1,1,chose desirable,desirable fac.,"(3.81e+03,5.83e+03]",FALSE,432
140,40,X2,0,1,1,0,ph,14,7,0.5,1678,7585,8.933927892,1,1.01E+13,1,0,0.5,7,0,0,7,1,-1,-1,chose undesirable,undesirable fac.,"(5.83e+03,9.1e+03]",FALSE,435
141,41,X2,0,1,1,0,ph,25,8,0.32,5887,13636,9.520468633,0,1.11E+24,1,-0.18,0.68,17,-9,9,17,1,-1,-1,chose undesirable,undesirable fac.,"(9.1e+03,1.77e+05]",FALSE,436
142,42,X2,1,1,0,0,ph,29,18,0.620689655,3420,15534,9.650786449,0,1.10E+27,0,0.120689655,0.620689655,11,7,7,18,0,-1,1,chose desirable,undesirable fac.,"(9.1e+03,1.77e+05]",FALSE,134
143,43,X2,0,0,1,1,ph,9,3,0.333333333,1113,4615,8.437067147,0,100010001,0,-0.166666667,0.666666667,6,-3,3,6,0,1,-1,chose undesirable,desirable fac.,"(3.81e+03,5.83e+03]",FALSE,215
144,44,X2,0,0,0,0,tv,7,3,0.428571429,2259,3739,8.226573475,0,111,1,-0.071428571,0.571428571,4,-1,1,4,1,-1,-1,chose undesirable,undesirable fac.,"(2.26e+03,3.81e+03]",FALSE,439
145,45,X2,1,0,1,0,tv,99,49,0.494949495,3054,54320,10.90264776,0,1.00E+97,0,-0.005050505,0.494949495,50,-1,-1,49,0,-1,1,chose desirable,undesirable fac.,"(9.1e+03,1.77e+05]",FALSE,420
146,46,X2,1,1,1,1,tv,12,7,0.583333333,409,6535,8.784927626,0,1.00E+11,1,0.083333333,0.583333333,5,2,2,7,1,1,1,chose desirable,desirable fac.,"(5.83e+03,9.1e+03]",FALSE,485
147,47,X2,1,1,0,0,ph,7,6,0.857142857,4693,3693,8.214194415,0,1111110,0,0.357142857,0.857142857,1,5,5,6,0,-1,1,chose desirable,undesirable fac.,"(2.26e+03,3.81e+03]",FALSE,393
148,48,X2,0,0,0,0,tv,5,0,0,1902,2658,7.885329239,2,0,1,-0.5,1,5,-5,5,5,1,-1,-1,chose undesirable,undesirable fac.,"(2.26e+03,3.81e+03]",FALSE,458
149,49,X2,1,0,0,1,ph,25,14,0.56,2919,13736,9.527775403,0,1.01E+23,1,0.06,0.56,11,3,3,14,1,1,1,chose desirable,desirable fac.,"(9.1e+03,1.77e+05]",FALSE,536
150,50,X2,0,0,1,1,ph,8,4,0.5,66,4102,8.319229939,0,1100011,0,0,0.5,4,0,0,4,0,1,-1,chose undesirable,desirable fac.,"(3.81e+03,5.83e+03]",FALSE,252
151,51,X2,0,0,0,0,tv,28,10,0.357142857,3795,15180,9.627734051,1,1.10E+27,1,-0.142857143,0.642857143,18,-8,8,18,1,-1,-1,chose undesirable,undesirable fac.,"(9.1e+03,1.77e+05]",FALSE,330
153,53,X2,0,0,0,0,tv,19,10,0.526315789,2188,9992,9.209540052,0,1.01E+15,1,0.026315789,0.473684211,9,1,-1,9,1,-1,-1,chose undesirable,undesirable fac.,"(9.1e+03,1.77e+05]",FALSE,92
154,54,X2,0,0,1,1,ph,7,2,0.285714286,1134,3759,8.231908244,0,100001,0,-0.214285714,0.714285714,5,-3,3,5,0,1,-1,chose undesirable,desirable fac.,"(2.26e+03,3.81e+03]",FALSE,459
155,55,X2,1,1,1,1,tv,10,10,1,1994,5406,8.595264727,0,1111111111,1,0.5,1,0,10,10,10,1,1,1,chose desirable,desirable fac.,"(3.81e+03,5.83e+03]",FALSE,456
156,56,X2,0,0,0,0,tv,41,14,0.341463415,2294,22251,10.01014223,0,1.10E+40,1,-0.158536585,0.658536585,27,-13,13,27,1,-1,-1,chose undesirable,undesirable fac.,"(9.1e+03,1.77e+05]",FALSE,251
157,57,X2,1,1,1,1,tv,7,6,0.857142857,2717,3701,8.216358332,1,111111,1,0.357142857,0.857142857,1,5,5,6,1,1,1,chose desirable,desirable fac.,"(2.26e+03,3.81e+03]",FALSE,401
158,58,X2,1,1,1,1,tv,9,8,0.888888889,1316,4528,8.41803562,0,111110111,1,0.388888889,0.888888889,1,7,7,8,1,1,1,chose desirable,desirable fac.,"(3.81e+03,5.83e+03]",FALSE,128
159,59,X2,1,0,0,1,ph,38,19,0.5,1784,20400,9.92329018,0,1.11E+35,1,0,0.5,19,0,0,19,1,1,1,chose desirable,desirable fac.,"(9.1e+03,1.77e+05]",FALSE,50
160,60,X2,0,1,0,1,tv,7,3,0.428571429,1294,3626,8.195885391,0,1001001,0,-0.071428571,0.571428571,4,-1,1,4,0,1,-1,chose undesirable,desirable fac.,"(2.26e+03,3.81e+03]",FALSE,326
161,61,X2,1,0,1,0,tv,7,5,0.714285714,782,3455,8.147577736,0,11111,0,0.214285714,0.714285714,2,3,3,5,0,-1,1,chose desirable,undesirable fac.,"(2.26e+03,3.81e+03]",FALSE,155
162,62,X2,1,0,1,0,tv,25,12,0.48,1966,13496,9.510148624,0,1.01E+21,0,-0.02,0.48,13,-1,-1,12,0,-1,1,chose desirable,undesirable fac.,"(9.1e+03,1.77e+05]",FALSE,296
163,63,X2,0,0,0,0,tv,23,8,0.347826087,684,12281,9.415808632,0,1.01E+21,1,-0.152173913,0.652173913,15,-7,7,15,1,-1,-1,chose undesirable,undesirable fac.,"(9.1e+03,1.77e+05]",FALSE,181
164,64,X2,0,0,0,0,tv,11,4,0.363636364,890,5519,8.615951963,0,11011000000,1,-0.136363636,0.636363636,7,-3,3,7,1,-1,-1,chose undesirable,undesirable fac.,"(3.81e+03,5.83e+03]",FALSE,19
165,65,X2,0,0,0,0,tv,7,1,0.142857143,132,3432,8.140898461,0,100000,1,-0.357142857,0.857142857,6,-5,5,6,1,-1,-1,chose undesirable,undesirable fac.,"(2.26e+03,3.81e+03]",FALSE,132
166,66,X2,1,0,0,1,ph,5,1,0.2,1278,2489,7.819636302,0,10000,1,-0.3,0.2,4,-3,-3,1,1,1,1,chose desirable,desirable fac.,"(2.26e+03,3.81e+03]",FALSE,289
167,67,X2,1,1,0,0,ph,15,9,0.6,917,7786,8.960082528,0,1.10E+13,0,0.1,0.6,6,3,3,9,0,-1,1,chose desirable,undesirable fac.,"(5.83e+03,9.1e+03]",FALSE,86
168,68,X2,1,0,1,0,tv,4,2,0.5,1264,1663,7.416378479,0,110,0,0,0.5,2,0,0,2,0,-1,1,chose desirable,undesirable fac.,"[0,2.26e+03]",FALSE,13
169,69,X2,1,1,1,1,tv,13,10,0.769230769,3591,6991,8.852378887,0,1.01E+12,1,0.269230769,0.769230769,3,7,7,10,1,1,1,chose desirable,desirable fac.,"(5.83e+03,9.1e+03]",FALSE,391
170,70,X2,1,0,0,1,ph,17,10,0.588235294,727,8864,9.089753409,0,1.10E+16,1,0.088235294,0.588235294,7,3,3,10,1,1,1,chose desirable,desirable fac.,"(5.83e+03,9.1e+03]",FALSE,64
171,71,X2,1,0,0,1,ph,8,5,0.625,704,4306,8.367764678,2,1001111,1,0.125,0.625,3,2,2,5,1,1,1,chose desirable,desirable fac.,"(3.81e+03,5.83e+03]",FALSE,456
172,72,X2,0,1,1,0,ph,12,6,0.5,2040,6359,8.757626411,0,10101000111,1,0,0.5,6,0,0,6,1,-1,-1,chose undesirable,undesirable fac.,"(5.83e+03,9.1e+03]",FALSE,309
173,73,X2,1,0,0,1,ph,22,11,0.5,675,11648,9.36288977,0,1.11E+21,1,0,0.5,11,0,0,11,1,1,1,chose desirable,desirable fac.,"(9.1e+03,1.77e+05]",FALSE,98
174,74,X2,0,0,1,1,ph,15,6,0.4,2465,7909,8.975756631,0,1.01E+11,0,-0.1,0.6,9,-3,3,9,0,1,-1,chose undesirable,desirable fac.,"(5.83e+03,9.1e+03]",FALSE,209
175,75,X2,0,1,1,0,ph,18,5,0.277777778,919,9584,9.16785032,0,1.00E+16,1,-0.222222222,0.722222222,13,-8,8,13,1,-1,-1,chose undesirable,undesirable fac.,"(9.1e+03,1.77e+05]",FALSE,234
176,76,X2,0,1,1,0,ph,12,3,0.25,1349,6441,8.770439087,0,1100010000,1,-0.25,0.75,9,-6,6,9,1,-1,-1,chose undesirable,undesirable fac.,"(5.83e+03,9.1e+03]",FALSE,391
178,78,X2,1,0,0,1,ph,5,4,0.8,596,2539,7.839525582,0,10111,1,0.3,0.8,1,3,3,4,1,1,1,chose desirable,desirable fac.,"(2.26e+03,3.81e+03]",FALSE,339
179,79,X2,1,1,0,0,ph,2,1,0.5,671,597,6.391917113,1,10,0,0,0.5,1,0,0,1,0,-1,1,chose desirable,undesirable fac.,"[0,2.26e+03]",FALSE,47
180,80,X2,1,0,1,0,tv,16,5,0.3125,2096,8776,9.079776002,0,1.00E+12,0,-0.1875,0.3125,11,-6,-6,5,0,-1,1,chose desirable,undesirable fac.,"(5.83e+03,9.1e+03]",FALSE,526
181,81,X2,1,1,1,1,tv,13,9,0.692307692,2203,6951,8.846640813,0,1.11E+11,1,0.192307692,0.692307692,4,5,5,9,1,1,1,chose desirable,desirable fac.,"(5.83e+03,9.1e+03]",FALSE,351
182,82,X2,1,1,0,0,ph,9,7,0.777777778,15035,4912,8.49943647,0,110101111,0,0.277777778,0.777777778,2,5,5,7,0,-1,1,chose desirable,undesirable fac.,"(3.81e+03,5.83e+03]",FALSE,512
183,83,X2,0,1,1,0,ph,11,3,0.272727273,4174,5984,8.69684452,0,1010010,1,-0.227272727,0.727272727,8,-5,5,8,1,-1,-1,chose undesirable,undesirable fac.,"(5.83e+03,9.1e+03]",FALSE,484
184,84,X2,0,1,1,0,ph,11,1,0.090909091,1158,5912,8.684739463,0,1000000000,1,-0.409090909,0.909090909,10,-9,9,10,1,-1,-1,chose undesirable,undesirable fac.,"(5.83e+03,9.1e+03]",FALSE,412
185,85,X2,1,1,1,1,tv,8,6,0.75,1406,4394,8.387995253,2,11011110,1,0.25,0.75,2,4,4,6,1,1,1,chose desirable,desirable fac.,"(3.81e+03,5.83e+03]",FALSE,544
186,86,X2,0,0,0,0,tv,11,3,0.272727273,1937,5988,8.697512746,3,100001100,1,-0.227272727,0.727272727,8,-5,5,8,1,-1,-1,chose undesirable,undesirable fac.,"(5.83e+03,9.1e+03]",FALSE,488
189,89,X2,0,1,1,0,ph,11,3,0.272727273,884,5574,8.625868208,0,11000001,1,-0.227272727,0.727272727,8,-5,5,8,1,-1,-1,chose undesirable,undesirable fac.,"(3.81e+03,5.83e+03]",FALSE,74
190,90,X2,0,1,1,0,ph,7,0,0,2791,3479,8.154500175,0,0,1,-0.5,1,7,-7,7,7,1,-1,-1,chose undesirable,undesirable fac.,"(2.26e+03,3.81e+03]",FALSE,179
191,91,X2,1,0,0,1,ph,22,14,0.636363636,11694,11996,9.39232854,10,1.11E+21,1,0.136363636,0.636363636,8,6,6,14,1,1,1,chose desirable,desirable fac.,"(9.1e+03,1.77e+05]",FALSE,446
192,92,X2,0,1,0,1,tv,16,6,0.375,807,8600,9.059517482,0,1.00E+15,0,-0.125,0.625,10,-4,4,10,0,1,-1,chose undesirable,desirable fac.,"(5.83e+03,9.1e+03]",FALSE,350
193,93,X2,0,1,1,0,ph,41,15,0.365853659,5819,22074,10.00215572,0,1.00E+37,1,-0.134146341,0.634146341,26,-11,11,26,1,-1,-1,chose undesirable,undesirable fac.,"(9.1e+03,1.77e+05]",FALSE,74
194,94,X2,1,1,1,1,tv,6,6,1,1944,2790,7.933796875,2,111111,1,0.5,1,0,6,6,6,1,1,1,chose desirable,desirable fac.,"(2.26e+03,3.81e+03]",FALSE,40
195,95,X2,1,0,0,1,ph,9,4,0.444444444,1110,4639,8.442254105,0,1110100,1,-0.055555556,0.444444444,5,-1,-1,4,1,1,1,chose desirable,desirable fac.,"(3.81e+03,5.83e+03]",FALSE,239
196,96,X2,0,0,0,0,tv,16,3,0.1875,2977,8461,9.043222649,0,1.01E+14,1,-0.3125,0.8125,13,-10,10,13,1,-1,-1,chose undesirable,undesirable fac.,"(5.83e+03,9.1e+03]",FALSE,211
197,97,X2,1,1,0,0,ph,42,20,0.476190476,1303,22704,10.0302964,0,1.11E+40,0,-0.023809524,0.476190476,22,-2,-2,20,0,-1,1,chose desirable,undesirable fac.,"(9.1e+03,1.77e+05]",FALSE,154
198,98,X2,1,1,1,1,tv,15,9,0.6,1559,7927,8.978029933,0,1.01E+14,1,0.1,0.6,6,3,3,9,1,1,1,chose desirable,desirable fac.,"(5.83e+03,9.1e+03]",FALSE,227
199,99,X2,1,0,0,1,ph,14,7,0.5,681,7608,8.936955604,4,1.10E+13,1,0,0.5,7,0,0,7,1,1,1,chose desirable,desirable fac.,"(5.83e+03,9.1e+03]",FALSE,458
200,100,X2,0,1,1,0,ph,8,1,0.125,768,4257,8.356319966,0,100000,1,-0.375,0.875,7,-6,6,7,1,-1,-1,chose undesirable,undesirable fac.,"(3.81e+03,5.83e+03]",FALSE,407
202,2,X3,1,0,0,1,ph,6,5,0.833333333,587,2896,7.971085754,0,110111,1,0.333333333,0.833333333,1,4,4,5,1,1,1,chose desirable,desirable fac.,"(2.26e+03,3.81e+03]",FALSE,146
203,3,X3,0,1,1,0,ph,7,2,0.285714286,1517,3770,8.23483028,0,11000,1,-0.214285714,0.714285714,5,-3,3,5,1,-1,-1,chose undesirable,undesirable fac.,"(2.26e+03,3.81e+03]",FALSE,470
204,4,X3,1,0,0,1,ph,12,8,0.666666667,614,6272,8.743850562,0,1.10E+11,1,0.166666667,0.666666667,4,4,4,8,1,1,1,chose desirable,desirable fac.,"(5.83e+03,9.1e+03]",FALSE,222
206,6,X3,0,1,1,0,ph,4,0,0,1127,2168,7.681560363,0,0,1,-0.5,1,4,-4,4,4,1,-1,-1,chose undesirable,undesirable fac.,"[0,2.26e+03]",FALSE,518
207,7,X3,0,0,0,0,tv,4,1,0.25,128,1712,7.445417557,0,100,1,-0.25,0.75,3,-2,2,3,1,-1,-1,chose undesirable,undesirable fac.,"[0,2.26e+03]",FALSE,62
208,8,X3,0,0,0,0,tv,10,3,0.3,447,5241,8.564267599,0,110100000,1,-0.2,0.7,7,-4,4,7,1,-1,-1,chose undesirable,undesirable fac.,"(3.81e+03,5.83e+03]",FALSE,291
209,9,X3,1,1,0,0,ph,9,6,0.666666667,1055,4558,8.42463921,0,101101110,0,0.166666667,0.666666667,3,3,3,6,0,-1,1,chose desirable,undesirable fac.,"(3.81e+03,5.83e+03]",FALSE,158
211,11,X3,1,0,0,1,ph,7,7,1,1013,3436,8.142063283,0,1111111,1,0.5,1,0,7,7,7,1,1,1,chose desirable,desirable fac.,"(2.26e+03,3.81e+03]",FALSE,136
212,12,X3,0,0,0,0,tv,24,9,0.375,1153,13169,9.485620862,0,1.10E+21,1,-0.125,0.625,15,-6,6,15,1,-1,-1,chose undesirable,undesirable fac.,"(9.1e+03,1.77e+05]",FALSE,519
213,13,X3,0,0,0,0,tv,13,2,0.153846154,730,6985,8.851520272,1,10100000,1,-0.346153846,0.846153846,11,-9,9,11,1,-1,-1,chose undesirable,undesirable fac.,"(5.83e+03,9.1e+03]",FALSE,385
214,14,X3,1,0,0,1,ph,12,7,0.583333333,2498,6220,8.735525186,0,1.10E+11,1,0.083333333,0.583333333,5,2,2,7,1,1,1,chose desirable,desirable fac.,"(5.83e+03,9.1e+03]",FALSE,170
215,15,X3,0,1,0,1,tv,9,1,0.111111111,4492,4673,8.449556543,0,1,0,-0.388888889,0.888888889,8,-7,7,8,0,1,-1,chose undesirable,desirable fac.,"(3.81e+03,5.83e+03]",FALSE,273
216,16,X3,1,1,1,1,tv,14,9,0.642857143,1032,7336,8.900549014,0,1.01E+12,1,0.142857143,0.642857143,5,4,4,9,1,1,1,chose desirable,desirable fac.,"(5.83e+03,9.1e+03]",FALSE,186
217,17,X3,0,1,1,0,ph,12,4,0.333333333,410,6242,8.739055923,0,11011000,1,-0.166666667,0.666666667,8,-4,4,8,1,-1,-1,chose undesirable,undesirable fac.,"(5.83e+03,9.1e+03]",FALSE,192
218,18,X3,0,1,0,1,tv,25,13,0.52,2118,13523,9.512147218,0,1.11E+24,0,0.02,0.48,12,1,-1,12,0,1,-1,chose undesirable,desirable fac.,"(9.1e+03,1.77e+05]",FALSE,323
219,19,X3,0,1,1,0,ph,14,5,0.357142857,655,7664,8.94428932,0,1.00E+13,1,-0.142857143,0.642857143,9,-4,4,9,1,-1,-1,chose undesirable,undesirable fac.,"(5.83e+03,9.1e+03]",FALSE,514
220,20,X3,0,0,1,1,ph,10,4,0.4,921,5324,8.57998018,0,1001010001,0,-0.1,0.6,6,-2,2,6,0,1,-1,chose undesirable,desirable fac.,"(3.81e+03,5.83e+03]",FALSE,374
221,21,X3,1,1,1,1,tv,10,6,0.6,722,5132,8.543250726,2,111101001,1,0.1,0.6,4,2,2,6,1,1,1,chose desirable,desirable fac.,"(3.81e+03,5.83e+03]",FALSE,182
222,22,X3,1,0,0,1,ph,7,5,0.714285714,2253,3736,8.225770799,0,1011011,1,0.214285714,0.714285714,2,3,3,5,1,1,1,chose desirable,desirable fac.,"(2.26e+03,3.81e+03]",FALSE,436
223,23,X3,1,0,0,1,ph,13,8,0.615384615,892,6773,8.820699399,0,1.01E+12,1,0.115384615,0.615384615,5,3,3,8,1,1,1,chose desirable,desirable fac.,"(5.83e+03,9.1e+03]",FALSE,173
225,25,X3,1,1,1,1,tv,8,5,0.625,339,4288,8.363575703,0,111110,1,0.125,0.625,3,2,2,5,1,1,1,chose desirable,desirable fac.,"(3.81e+03,5.83e+03]",FALSE,438
226,26,X3,0,0,0,0,tv,10,3,0.3,1564,5003,8.517793011,1,11001000,1,-0.2,0.7,7,-4,4,7,1,-1,-1,chose undesirable,undesirable fac.,"(3.81e+03,5.83e+03]",FALSE,53
227,27,X3,1,0,0,1,ph,25,14,0.56,802,13493,9.509926311,0,1.11E+24,1,0.06,0.56,11,3,3,14,1,1,1,chose desirable,desirable fac.,"(9.1e+03,1.77e+05]",FALSE,293
228,28,X3,1,1,1,1,tv,7,5,0.714285714,951,3655,8.203851372,0,1011110,1,0.214285714,0.714285714,2,3,3,5,1,1,1,chose desirable,desirable fac.,"(2.26e+03,3.81e+03]",FALSE,355
229,29,X3,0,0,0,0,tv,36,15,0.416666667,641,19359,9.870912707,0,1.10E+35,1,-0.083333333,0.583333333,21,-6,6,21,1,-1,-1,chose undesirable,undesirable fac.,"(9.1e+03,1.77e+05]",FALSE,109
231,31,X3,0,1,1,0,ph,28,10,0.357142857,768,14881,9.60784051,0,1.10E+24,1,-0.142857143,0.642857143,18,-8,8,18,1,-1,-1,chose undesirable,undesirable fac.,"(9.1e+03,1.77e+05]",FALSE,31
232,32,X3,1,0,0,1,ph,10,7,0.7,901,5057,8.528528701,0,11111101,1,0.2,0.7,3,4,4,7,1,1,1,chose desirable,desirable fac.,"(3.81e+03,5.83e+03]",FALSE,107
233,33,X3,1,0,0,1,ph,20,12,0.6,722,10949,9.301003407,0,1.11E+19,1,0.1,0.6,8,4,4,12,1,1,1,chose desirable,desirable fac.,"(9.1e+03,1.77e+05]",FALSE,499
234,34,X3,0,0,0,0,tv,16,6,0.375,897,8429,9.03943342,0,1.00E+14,1,-0.125,0.625,10,-4,4,10,1,-1,-1,chose undesirable,undesirable fac.,"(5.83e+03,9.1e+03]",FALSE,179
237,37,X3,0,0,0,0,tv,16,7,0.4375,724,8304,9.024492605,0,1.00E+14,1,-0.0625,0.5625,9,-2,2,9,1,-1,-1,chose undesirable,undesirable fac.,"(5.83e+03,9.1e+03]",FALSE,54
238,38,X3,0,0,0,0,tv,24,11,0.458333333,1741,12975,9.470779708,0,1.10E+23,1,-0.041666667,0.541666667,13,-2,2,13,1,-1,-1,chose undesirable,undesirable fac.,"(9.1e+03,1.77e+05]",FALSE,325
239,39,X3,0,1,0,1,tv,17,7,0.411764706,997,9316,9.139488631,0,1.01E+13,0,-0.088235294,0.588235294,10,-3,3,10,0,1,-1,chose undesirable,desirable fac.,"(9.1e+03,1.77e+05]",FALSE,516
240,40,X3,1,0,0,1,ph,14,7,0.5,2264,7545,8.928640371,0,1.11E+12,1,0,0.5,7,0,0,7,1,1,1,chose desirable,desirable fac.,"(5.83e+03,9.1e+03]",FALSE,395
241,41,X3,0,1,1,0,ph,14,5,0.357142857,960,7176,8.878497404,1,1.10E+13,1,-0.142857143,0.642857143,9,-4,4,9,1,-1,-1,chose undesirable,undesirable fac.,"(5.83e+03,9.1e+03]",FALSE,26
242,42,X3,0,1,1,0,ph,38,17,0.447368421,1399,20625,9.934259211,0,1.00E+37,1,-0.052631579,0.552631579,21,-4,4,21,1,-1,-1,chose undesirable,undesirable fac.,"(9.1e+03,1.77e+05]",FALSE,275
243,43,X3,1,0,0,1,ph,6,4,0.666666667,862,2864,7.959974528,0,101011,1,0.166666667,0.666666667,2,2,2,4,1,1,1,chose desirable,desirable fac.,"(2.26e+03,3.81e+03]",FALSE,114
244,44,X3,0,0,0,0,tv,4,1,0.25,2887,1954,7.577633833,0,1,1,-0.25,0.75,3,-2,2,3,1,-1,-1,chose undesirable,undesirable fac.,"[0,2.26e+03]",FALSE,304
245,45,X3,1,1,1,1,tv,29,21,0.724137931,2601,15791,9.667195436,0,1.11E+27,1,0.224137931,0.724137931,8,13,13,21,1,1,1,chose desirable,desirable fac.,"(9.1e+03,1.77e+05]",FALSE,391
246,46,X3,0,0,0,0,tv,21,7,0.333333333,350,11354,9.337325384,0,1.01E+20,1,-0.166666667,0.666666667,14,-7,7,14,1,-1,-1,chose undesirable,undesirable fac.,"(9.1e+03,1.77e+05]",FALSE,354
247,47,X3,1,0,0,1,ph,12,8,0.666666667,2289,6240,8.738735461,0,1.01E+11,1,0.166666667,0.666666667,4,4,4,8,1,1,1,chose desirable,desirable fac.,"(5.83e+03,9.1e+03]",FALSE,190
248,48,X3,0,0,0,0,tv,11,3,0.272727273,833,5616,8.633374946,6,11000010,1,-0.227272727,0.727272727,8,-5,5,8,1,-1,-1,chose undesirable,undesirable fac.,"(3.81e+03,5.83e+03]",FALSE,116
249,49,X3,0,0,1,1,ph,21,10,0.476190476,878,11392,9.340666634,0,1.01E+19,0,-0.023809524,0.523809524,11,-1,1,11,0,1,-1,chose undesirable,desirable fac.,"(9.1e+03,1.77e+05]",FALSE,392
250,50,X3,1,0,0,1,ph,15,10,0.666666667,179,7854,8.968778235,0,1.01E+14,1,0.166666667,0.666666667,5,5,5,10,1,1,1,chose desirable,desirable fac.,"(5.83e+03,9.1e+03]",FALSE,154
251,51,X3,1,1,1,1,tv,34,22,0.647058824,1762,18432,9.821843563,3,1.01E+33,1,0.147058824,0.647058824,12,10,10,22,1,1,1,chose desirable,desirable fac.,"(9.1e+03,1.77e+05]",FALSE,282
253,53,X3,1,1,1,1,tv,11,6,0.545454545,603,5777,8.661639796,0,101001111,1,0.045454545,0.545454545,5,1,1,6,1,1,1,chose desirable,desirable fac.,"(3.81e+03,5.83e+03]",FALSE,277
254,54,X3,1,1,0,0,ph,6,6,1,452,2991,8.003363059,0,111111,0,0.5,1,0,6,6,6,0,-1,1,chose desirable,undesirable fac.,"(2.26e+03,3.81e+03]",FALSE,241
255,55,X3,0,0,0,0,tv,23,11,0.47826087,1433,12520,9.435082645,0,1.10E+19,1,-0.02173913,0.52173913,12,-1,1,12,1,-1,-1,chose undesirable,undesirable fac.,"(9.1e+03,1.77e+05]",FALSE,420
256,56,X3,1,1,1,1,tv,33,22,0.666666667,1624,17796,9.786728992,0,1.00E+30,1,0.166666667,0.666666667,11,11,11,22,1,1,1,chose desirable,desirable fac.,"(9.1e+03,1.77e+05]",FALSE,196
257,57,X3,0,0,0,0,tv,26,8,0.307692308,1735,14083,9.552723675,4,1.00E+25,1,-0.192307692,0.692307692,18,-10,10,18,1,-1,-1,chose undesirable,undesirable fac.,"(9.1e+03,1.77e+05]",FALSE,333
258,58,X3,1,1,1,1,tv,14,10,0.714285714,779,7513,8.924390132,0,1.11E+13,1,0.214285714,0.714285714,4,6,6,10,1,1,1,chose desirable,desirable fac.,"(5.83e+03,9.1e+03]",FALSE,363
259,59,X3,1,0,0,1,ph,17,11,0.647058824,478,8937,9.097955241,0,1.01E+15,1,0.147058824,0.647058824,6,5,5,11,1,1,1,chose desirable,desirable fac.,"(5.83e+03,9.1e+03]",FALSE,137
260,60,X3,1,1,1,1,tv,9,6,0.666666667,93,4530,8.418477218,1,1110111,1,0.166666667,0.666666667,3,3,3,6,1,1,1,chose desirable,desirable fac.,"(3.81e+03,5.83e+03]",FALSE,130
261,61,X3,0,1,0,1,tv,7,3,0.428571429,703,3449,8.145839613,0,110100,0,-0.071428571,0.571428571,4,-1,1,4,0,1,-1,chose undesirable,desirable fac.,"(2.26e+03,3.81e+03]",FALSE,149
262,62,X3,1,1,1,1,tv,27,17,0.62962963,711,14553,9.585552437,0,1.10E+26,1,0.12962963,0.62962963,10,7,7,17,1,1,1,chose desirable,desirable fac.,"(9.1e+03,1.77e+05]",FALSE,253
263,63,X3,0,0,0,0,tv,11,4,0.363636364,525,5768,8.660080679,0,10100010001,1,-0.136363636,0.636363636,7,-3,3,7,1,-1,-1,chose undesirable,undesirable fac.,"(3.81e+03,5.83e+03]",FALSE,268
264,64,X3,1,1,1,1,tv,9,9,1,780,4567,8.426611813,0,111111111,1,0.5,1,0,9,9,9,1,1,1,chose desirable,desirable fac.,"(3.81e+03,5.83e+03]",FALSE,167
265,65,X3,1,1,1,1,tv,9,8,0.888888889,2742,4551,8.423102268,0,11111111,1,0.388888889,0.888888889,1,7,7,8,1,1,1,chose desirable,desirable fac.,"(3.81e+03,5.83e+03]",FALSE,151
266,66,X3,1,0,0,1,ph,6,5,0.833333333,1305,2958,7.992268643,0,111011,1,0.333333333,0.833333333,1,4,4,5,1,1,1,chose desirable,desirable fac.,"(2.26e+03,3.81e+03]",FALSE,208
267,67,X3,1,0,0,1,ph,14,7,0.5,885,7278,8.892611378,0,1.10E+12,1,0,0.5,7,0,0,7,1,1,1,chose desirable,desirable fac.,"(5.83e+03,9.1e+03]",FALSE,128
268,68,X3,0,0,0,0,tv,3,1,0.333333333,752,1279,7.153833802,0,1,1,-0.166666667,0.666666667,2,-1,1,2,1,-1,-1,chose undesirable,undesirable fac.,"[0,2.26e+03]",FALSE,179
269,69,X3,1,1,1,1,tv,15,11,0.733333333,2497,7983,8.98506956,0,1.11E+13,1,0.233333333,0.733333333,4,7,7,11,1,1,1,chose desirable,desirable fac.,"(5.83e+03,9.1e+03]",FALSE,283
270,70,X3,1,0,0,1,ph,11,8,0.727272727,664,5928,8.687442167,0,1010111111,1,0.227272727,0.727272727,3,5,5,8,1,1,1,chose desirable,desirable fac.,"(5.83e+03,9.1e+03]",FALSE,428
271,71,X3,0,0,1,1,ph,4,0,0,550,2128,7.66293785,0,0,0,-0.5,1,4,-4,4,4,0,1,-1,chose undesirable,desirable fac.,"[0,2.26e+03]",FALSE,478
272,72,X3,0,1,1,0,ph,11,2,0.181818182,1256,5960,8.69282576,0,100100000,1,-0.318181818,0.818181818,9,-7,7,9,1,-1,-1,chose undesirable,undesirable fac.,"(5.83e+03,9.1e+03]",FALSE,460
273,73,X3,1,0,0,1,ph,18,8,0.444444444,670,9567,9.166074956,0,1.10E+14,1,-0.055555556,0.444444444,10,-2,-2,8,1,1,1,chose desirable,desirable fac.,"(9.1e+03,1.77e+05]",FALSE,217
274,74,X3,1,0,0,1,ph,19,11,0.578947368,1047,10024,9.212737497,0,1.11E+18,1,0.078947368,0.578947368,8,3,3,11,1,1,1,chose desirable,desirable fac.,"(9.1e+03,1.77e+05]",FALSE,124
275,75,X3,1,1,0,0,ph,22,10,0.454545455,742,11728,9.369734424,0,1.00E+21,0,-0.045454545,0.454545455,12,-2,-2,10,0,-1,1,chose desirable,undesirable fac.,"(9.1e+03,1.77e+05]",FALSE,178
276,76,X3,1,0,0,1,ph,20,13,0.65,990,10695,9.277531622,0,1.11E+16,1,0.15,0.65,7,6,6,13,1,1,1,chose desirable,desirable fac.,"(9.1e+03,1.77e+05]",FALSE,245
278,78,X3,1,0,0,1,ph,5,4,0.8,223,2440,7.799753318,0,10111,1,0.3,0.8,1,3,3,4,1,1,1,chose desirable,desirable fac.,"(2.26e+03,3.81e+03]",FALSE,240
279,79,X3,0,0,1,1,ph,2,0,0,534,860,6.756932389,0,0,0,-0.5,1,2,-2,2,2,0,1,-1,chose undesirable,desirable fac.,"[0,2.26e+03]",FALSE,310
280,80,X3,0,1,0,1,tv,17,6,0.352941176,2440,8960,9.100525506,0,1.10E+11,0,-0.147058824,0.647058824,11,-5,5,11,0,1,-1,chose undesirable,desirable fac.,"(5.83e+03,9.1e+03]",FALSE,160
281,81,X3,1,1,1,1,tv,16,14,0.875,823,8736,9.075207698,0,1.01E+15,1,0.375,0.875,2,12,12,14,1,1,1,chose desirable,desirable fac.,"(5.83e+03,9.1e+03]",FALSE,486
282,82,X3,0,1,1,0,ph,9,3,0.333333333,5574,4663,8.447414297,0,11000001,1,-0.166666667,0.666666667,6,-3,3,6,1,-1,-1,chose undesirable,undesirable fac.,"(3.81e+03,5.83e+03]",FALSE,263
283,83,X3,1,0,0,1,ph,19,12,0.631578947,3667,10384,9.248021439,0,1.00E+17,1,0.131578947,0.631578947,7,5,5,12,1,1,1,chose desirable,desirable fac.,"(9.1e+03,1.77e+05]",FALSE,484
284,84,X3,1,0,0,1,ph,22,14,0.636363636,1942,11735,9.370331108,0,1.11E+21,1,0.136363636,0.636363636,8,6,6,14,1,1,1,chose desirable,desirable fac.,"(9.1e+03,1.77e+05]",FALSE,185
285,85,X3,1,1,1,1,tv,13,7,0.538461538,1374,7125,8.871365005,3,1.00E+12,1,0.038461538,0.538461538,6,1,1,7,1,1,1,chose desirable,desirable fac.,"(5.83e+03,9.1e+03]",FALSE,525
286,86,X3,0,1,0,1,tv,15,7,0.466666667,949,7738,8.953898535,5,1.00E+11,0,-0.033333333,0.533333333,8,-1,1,8,0,1,-1,chose undesirable,desirable fac.,"(5.83e+03,9.1e+03]",FALSE,38
288,88,X3,1,0,0,1,ph,6,4,0.666666667,1707,2946,7.988203597,4,110110,1,0.166666667,0.666666667,2,2,2,4,1,1,1,chose desirable,desirable fac.,"(2.26e+03,3.81e+03]",FALSE,196
289,89,X3,1,0,0,1,ph,8,6,0.75,668,4395,8.38822281,0,111111,1,0.25,0.75,2,4,4,6,1,1,1,chose desirable,desirable fac.,"(3.81e+03,5.83e+03]",FALSE,545
290,90,X3,0,1,1,0,ph,5,1,0.2,1989,2675,7.891704659,0,1,1,-0.3,0.8,4,-3,3,4,1,-1,-1,chose undesirable,undesirable fac.,"(2.26e+03,3.81e+03]",FALSE,475
291,91,X3,0,1,1,0,ph,23,7,0.304347826,12431,12376,9.423514392,9,1.01E+18,1,-0.195652174,0.695652174,16,-9,9,16,1,-1,-1,chose undesirable,undesirable fac.,"(9.1e+03,1.77e+05]",FALSE,276
292,92,X3,0,0,0,0,tv,20,4,0.2,1533,10529,9.261888634,2,1.10E+16,1,-0.3,0.8,16,-12,12,16,1,-1,-1,chose undesirable,undesirable fac.,"(9.1e+03,1.77e+05]",FALSE,79
293,93,X3,0,0,1,1,ph,22,12,0.545454545,4596,11965,9.389741,0,1.01E+21,0,0.045454545,0.454545455,10,2,-2,10,0,1,-1,chose undesirable,desirable fac.,"(9.1e+03,1.77e+05]",FALSE,415
294,94,X3,1,1,1,1,tv,6,6,1,1135,2813,7.942006808,1,111111,1,0.5,1,0,6,6,6,1,1,1,chose desirable,desirable fac.,"(2.26e+03,3.81e+03]",FALSE,63
295,95,X3,1,0,0,1,ph,12,6,0.5,629,6331,8.753213481,0,1001110011,1,0,0.5,6,0,0,6,1,1,1,chose desirable,desirable fac.,"(5.83e+03,9.1e+03]",FALSE,281
296,96,X3,0,0,0,0,tv,11,2,0.181818182,1207,5704,8.648922962,1,10100000,1,-0.318181818,0.818181818,9,-7,7,9,1,-1,-1,chose undesirable,undesirable fac.,"(3.81e+03,5.83e+03]",FALSE,204
297,97,X3,0,0,1,1,ph,30,16,0.533333333,1455,16160,9.690294332,0,1.10E+29,0,0.033333333,0.466666667,14,2,-2,14,0,1,-1,chose undesirable,desirable fac.,"(9.1e+03,1.77e+05]",FALSE,210
298,98,X3,0,0,0,0,tv,19,8,0.421052632,1701,10046,9.214929824,0,1.01E+18,1,-0.078947368,0.578947368,11,-3,3,11,1,-1,-1,chose undesirable,undesirable fac.,"(9.1e+03,1.77e+05]",FALSE,146
299,99,X3,1,0,0,1,ph,18,11,0.611111111,110,9388,9.147187557,8,1.11E+15,1,0.111111111,0.611111111,7,4,4,11,1,1,1,chose desirable,desirable fac.,"(9.1e+03,1.77e+05]",FALSE,38
300,100,X3,1,1,0,0,ph,12,6,0.5,1206,6239,8.738575192,1,10011111000,0,0,0.5,6,0,0,6,0,-1,1,chose desirable,undesirable fac.,"(5.83e+03,9.1e+03]",FALSE,189
302,2,X4,0,1,1,0,ph,7,3,0.428571429,832,3812,8.245909265,0,110001,1,-0.071428571,0.571428571,4,-1,1,4,1,-1,-1,chose undesirable,undesirable fac.,"(3.81e+03,5.83e+03]",FALSE,512
303,3,X4,1,0,0,1,ph,8,6,0.75,951,3984,8.290041619,0,11001111,1,0.25,0.75,2,4,4,6,1,1,1,chose desirable,desirable fac.,"(3.81e+03,5.83e+03]",FALSE,134
304,4,X4,0,1,1,0,ph,23,10,0.434782609,826,12493,9.432923766,0,1.10E+20,1,-0.065217391,0.565217391,13,-3,3,13,1,-1,-1,chose undesirable,undesirable fac.,"(9.1e+03,1.77e+05]",FALSE,393
306,6,X4,1,0,0,1,ph,8,4,0.5,1237,3853,8.256607345,0,111100,1,0,0.5,4,0,0,4,1,1,1,chose desirable,desirable fac.,"(3.81e+03,5.83e+03]",FALSE,3
307,7,X4,0,0,0,0,tv,3,0,0,31,1352,7.209340257,0,0,1,-0.5,1,3,-3,3,3,1,-1,-1,chose undesirable,undesirable fac.,"[0,2.26e+03]",FALSE,252
308,8,X4,0,0,0,0,tv,7,2,0.285714286,566,3584,8.184234774,0,1000100,1,-0.214285714,0.714285714,5,-3,3,5,1,-1,-1,chose undesirable,undesirable fac.,"(2.26e+03,3.81e+03]",FALSE,284
309,9,X4,1,0,0,1,ph,7,5,0.714285714,220,3803,8.243545508,0,111110,1,0.214285714,0.714285714,2,3,3,5,1,1,1,chose desirable,desirable fac.,"(2.26e+03,3.81e+03]",FALSE,503
311,11,X4,0,1,1,0,ph,13,4,0.307692308,1518,6857,8.833025307,0,1001010001,1,-0.192307692,0.692307692,9,-5,5,9,1,-1,-1,chose undesirable,undesirable fac.,"(5.83e+03,9.1e+03]",FALSE,257
312,12,X4,0,0,0,0,tv,13,5,0.384615385,763,6863,8.833899943,0,1.00E+11,1,-0.115384615,0.615384615,8,-3,3,8,1,-1,-1,chose undesirable,undesirable fac.,"(5.83e+03,9.1e+03]",FALSE,263
313,13,X4,0,0,0,0,tv,21,10,0.476190476,1339,11198,9.32349047,3,1.01E+20,1,-0.023809524,0.523809524,11,-1,1,11,1,-1,-1,chose undesirable,undesirable fac.,"(9.1e+03,1.77e+05]",FALSE,198
314,14,X4,1,0,0,1,ph,8,7,0.875,1890,4024,8.300031712,0,10111111,1,0.375,0.875,1,6,6,7,1,1,1,chose desirable,desirable fac.,"(3.81e+03,5.83e+03]",FALSE,174
315,15,X4,0,0,0,0,tv,21,6,0.285714286,1881,11083,9.313167682,0,1.00E+19,1,-0.214285714,0.714285714,15,-9,9,15,1,-1,-1,chose undesirable,undesirable fac.,"(9.1e+03,1.77e+05]",FALSE,83
316,16,X4,0,0,0,0,tv,17,5,0.294117647,863,8880,9.091556836,0,1.10E+15,1,-0.205882353,0.705882353,12,-7,7,12,1,-1,-1,chose undesirable,undesirable fac.,"(5.83e+03,9.1e+03]",FALSE,80
317,17,X4,1,0,0,1,ph,12,8,0.666666667,1260,6058,8.709134992,0,1.10E+11,1,0.166666667,0.666666667,4,4,4,8,1,1,1,chose desirable,desirable fac.,"(5.83e+03,9.1e+03]",FALSE,8
318,18,X4,0,0,0,0,tv,31,14,0.451612903,1338,16926,9.73660618,0,1.01E+29,1,-0.048387097,0.548387097,17,-3,3,17,1,-1,-1,chose undesirable,undesirable fac.,"(9.1e+03,1.77e+05]",FALSE,426
319,19,X4,1,0,0,1,ph,9,7,0.777777778,702,4793,8.474911799,0,110011111,1,0.277777778,0.777777778,2,5,5,7,1,1,1,chose desirable,desirable fac.,"(3.81e+03,5.83e+03]",FALSE,393
320,20,X4,1,0,0,1,ph,7,5,0.714285714,517,3534,8.170185653,0,1101011,1,0.214285714,0.714285714,2,3,3,5,1,1,1,chose desirable,desirable fac.,"(2.26e+03,3.81e+03]",FALSE,234
321,21,X4,1,1,1,1,tv,17,9,0.529411765,1079,8980,9.102755161,0,1.11E+16,1,0.029411765,0.529411765,8,1,1,9,1,1,1,chose desirable,desirable fac.,"(5.83e+03,9.1e+03]",FALSE,180
322,22,X4,0,0,1,1,ph,18,11,0.611111111,254,9608,9.170351364,0,1.00E+17,0,0.111111111,0.388888889,7,4,-4,7,0,1,-1,chose undesirable,desirable fac.,"(9.1e+03,1.77e+05]",FALSE,258
323,23,X4,0,1,1,0,ph,15,5,0.333333333,1257,7803,8.962263554,0,1.10E+14,1,-0.166666667,0.666666667,10,-5,5,10,1,-1,-1,chose undesirable,undesirable fac.,"(5.83e+03,9.1e+03]",FALSE,103
324,24,X4,0,1,0,1,tv,25,11,0.44,41,13708,9.525734883,12,1.01E+24,0,-0.06,0.56,14,-3,3,14,0,1,-1,chose undesirable,desirable fac.,"(9.1e+03,1.77e+05]",FALSE,508
325,25,X4,1,1,1,1,tv,12,7,0.583333333,440,6320,8.751474487,0,1.10E+11,1,0.083333333,0.583333333,5,2,2,7,1,1,1,chose desirable,desirable fac.,"(5.83e+03,9.1e+03]",FALSE,270
326,26,X4,0,0,0,0,tv,21,6,0.285714286,834,11510,9.350971502,4,1.00E+19,1,-0.214285714,0.714285714,15,-9,9,15,1,-1,-1,chose undesirable,undesirable fac.,"(9.1e+03,1.77e+05]",FALSE,510
327,27,X4,1,0,0,1,ph,13,9,0.692307692,647,6720,8.812843434,0,1.01E+11,1,0.192307692,0.692307692,4,5,5,9,1,1,1,chose desirable,desirable fac.,"(5.83e+03,9.1e+03]",FALSE,120
328,28,X4,0,0,0,0,tv,12,4,0.333333333,844,6130,8.720950029,0,10100010010,1,-0.166666667,0.666666667,8,-4,4,8,1,-1,-1,chose undesirable,undesirable fac.,"(5.83e+03,9.1e+03]",FALSE,80
329,29,X4,1,1,1,1,tv,22,13,0.590909091,1523,11828,9.378224881,0,1.01E+21,1,0.090909091,0.590909091,9,4,4,13,1,1,1,chose desirable,desirable fac.,"(9.1e+03,1.77e+05]",FALSE,278
330,30,X4,0,1,1,0,ph,4,1,0.25,824,1861,7.528869257,2,1,1,-0.25,0.75,3,-2,2,3,1,-1,-1,chose undesirable,undesirable fac.,"[0,2.26e+03]",FALSE,211
331,31,X4,0,1,1,0,ph,58,22,0.379310345,925,31449,10.35612247,0,1.00E+57,1,-0.120689655,0.620689655,36,-14,14,36,1,-1,-1,chose undesirable,undesirable fac.,"(9.1e+03,1.77e+05]",FALSE,99
332,32,X4,1,1,0,0,ph,17,7,0.411764706,856,9087,9.1146001,0,1.01E+16,0,-0.088235294,0.411764706,10,-3,-3,7,0,-1,1,chose desirable,undesirable fac.,"(5.83e+03,9.1e+03]",FALSE,287
333,33,X4,1,1,0,0,ph,28,15,0.535714286,980,15373,9.640368003,0,1.10E+25,0,0.035714286,0.535714286,13,2,2,15,0,-1,1,chose desirable,undesirable fac.,"(9.1e+03,1.77e+05]",FALSE,523
334,34,X4,1,1,1,1,tv,4,4,1,776,1944,7.572502985,0,1111,1,0.5,1,0,4,4,4,1,1,1,chose desirable,desirable fac.,"[0,2.26e+03]",FALSE,294
337,37,X4,1,1,1,1,tv,7,6,0.857142857,757,3641,8.200013648,0,1110111,1,0.357142857,0.857142857,1,5,5,6,1,1,1,chose desirable,desirable fac.,"(2.26e+03,3.81e+03]",FALSE,341
338,38,X4,0,0,0,0,tv,19,6,0.315789474,2108,10184,9.22857314,0,1.01E+17,1,-0.184210526,0.684210526,13,-7,7,13,1,-1,-1,chose undesirable,undesirable fac.,"(9.1e+03,1.77e+05]",FALSE,284
339,39,X4,1,1,1,1,tv,17,11,0.647058824,1211,8886,9.092232283,0,1.11E+16,1,0.147058824,0.647058824,6,5,5,11,1,1,1,chose desirable,desirable fac.,"(5.83e+03,9.1e+03]",FALSE,86
340,40,X4,0,1,1,0,ph,14,6,0.428571429,1973,7242,8.88765269,0,1.10E+13,1,-0.071428571,0.571428571,8,-2,2,8,1,-1,-1,chose undesirable,undesirable fac.,"(5.83e+03,9.1e+03]",FALSE,92
342,42,X4,1,0,0,1,ph,58,30,0.517241379,2103,31474,10.35691709,0,1.10E+54,1,0.017241379,0.517241379,28,2,2,30,1,1,1,chose desirable,desirable fac.,"(9.1e+03,1.77e+05]",FALSE,124
343,43,X4,1,1,0,0,ph,13,7,0.538461538,510,6831,8.829226355,0,1.01E+12,0,0.038461538,0.538461538,6,1,1,7,0,-1,1,chose desirable,undesirable fac.,"(5.83e+03,9.1e+03]",FALSE,231
344,44,X4,1,0,1,0,tv,3,1,0.333333333,2661,1490,7.306531399,0,100,0,-0.166666667,0.333333333,2,-1,-1,1,0,-1,1,chose desirable,undesirable fac.,"[0,2.26e+03]",FALSE,390
345,45,X4,0,0,0,0,tv,30,11,0.366666667,3136,16448,9.707959168,0,1.10E+28,1,-0.133333333,0.633333333,19,-8,8,19,1,-1,-1,chose undesirable,undesirable fac.,"(9.1e+03,1.77e+05]",FALSE,498
346,46,X4,0,0,0,0,tv,41,16,0.390243902,10798,22145,10.00536702,0,1.10E+36,1,-0.109756098,0.609756098,25,-9,9,25,1,-1,-1,chose undesirable,undesirable fac.,"(9.1e+03,1.77e+05]",FALSE,145
347,47,X4,1,0,0,1,ph,20,13,0.65,1060,10547,9.263596738,0,1.00E+19,1,0.15,0.65,7,6,6,13,1,1,1,chose desirable,desirable fac.,"(9.1e+03,1.77e+05]",FALSE,97
348,48,X4,0,0,0,0,tv,18,8,0.444444444,496,9480,9.156939595,9,1.01E+17,1,-0.055555556,0.555555556,10,-2,2,10,1,-1,-1,chose undesirable,undesirable fac.,"(9.1e+03,1.77e+05]",FALSE,130
349,49,X4,0,1,1,0,ph,21,7,0.333333333,679,11480,9.34836167,0,1.11E+19,1,-0.166666667,0.666666667,14,-7,7,14,1,-1,-1,chose undesirable,undesirable fac.,"(9.1e+03,1.77e+05]",FALSE,480
350,50,X4,0,1,1,0,ph,14,4,0.285714286,58,7152,8.875147317,0,1.00E+12,1,-0.214285714,0.714285714,10,-6,6,10,1,-1,-1,chose undesirable,undesirable fac.,"(5.83e+03,9.1e+03]",FALSE,2
351,51,X4,0,1,0,1,tv,34,17,0.5,1778,18340,9.816839746,4,1.11E+32,0,0,0.5,17,0,0,17,0,1,-1,chose undesirable,desirable fac.,"(9.1e+03,1.77e+05]",FALSE,190
353,53,X4,1,0,1,0,tv,19,9,0.473684211,700,10287,9.238636241,0,1.01E+14,0,-0.026315789,0.473684211,10,-1,-1,9,0,-1,1,chose desirable,undesirable fac.,"(9.1e+03,1.77e+05]",FALSE,387
354,54,X4,0,1,1,0,ph,6,1,0.166666667,598,2864,7.959974528,0,100000,1,-0.333333333,0.833333333,5,-4,4,5,1,-1,-1,chose undesirable,undesirable fac.,"(2.26e+03,3.81e+03]",FALSE,114
355,55,X4,1,1,1,1,tv,14,8,0.571428571,1978,7636,8.940629185,0,1.11E+13,1,0.071428571,0.571428571,6,2,2,8,1,1,1,chose desirable,desirable fac.,"(5.83e+03,9.1e+03]",FALSE,486
356,56,X4,1,1,1,1,tv,35,21,0.6,1628,18821,9.842728547,0,1.10E+34,1,0.1,0.6,14,7,7,21,1,1,1,chose desirable,desirable fac.,"(9.1e+03,1.77e+05]",FALSE,121
357,57,X4,1,0,1,0,tv,26,12,0.461538462,3296,14068,9.551657994,5,1.10E+25,0,-0.038461538,0.461538462,14,-2,-2,12,0,-1,1,chose desirable,undesirable fac.,"(9.1e+03,1.77e+05]",FALSE,318
358,58,X4,0,0,0,0,tv,17,6,0.352941176,826,8965,9.101083386,0,1.00E+13,1,-0.147058824,0.647058824,11,-5,5,11,1,-1,-1,chose undesirable,undesirable fac.,"(5.83e+03,9.1e+03]",FALSE,165
359,59,X4,1,0,0,1,ph,15,8,0.533333333,11385,8128,9.00307017,0,1.11E+12,1,0.033333333,0.533333333,7,1,1,8,1,1,1,chose desirable,desirable fac.,"(5.83e+03,9.1e+03]",FALSE,428
360,60,X4,0,0,0,0,tv,7,3,0.428571429,1815,3734,8.225235324,1,1001001,1,-0.071428571,0.571428571,4,-1,1,4,1,-1,-1,chose undesirable,undesirable fac.,"(2.26e+03,3.81e+03]",FALSE,434
361,61,X4,1,1,1,1,tv,6,4,0.666666667,623,2945,7.987864096,0,110110,1,0.166666667,0.666666667,2,2,2,4,1,1,1,chose desirable,desirable fac.,"(2.26e+03,3.81e+03]",FALSE,195
362,62,X4,0,0,0,0,tv,21,13,0.619047619,782,11512,9.351145249,0,1.10E+20,1,0.119047619,0.380952381,8,5,-5,8,1,-1,-1,chose undesirable,undesirable fac.,"(9.1e+03,1.77e+05]",FALSE,512
363,63,X4,0,0,0,0,tv,11,3,0.272727273,1294,6029,8.704336438,0,1100001,1,-0.227272727,0.727272727,8,-5,5,8,1,-1,-1,chose undesirable,undesirable fac.,"(5.83e+03,9.1e+03]",FALSE,529
364,64,X4,1,1,1,1,tv,9,5,0.555555556,460,4908,8.498621806,0,11000111,1,0.055555556,0.555555556,4,1,1,5,1,1,1,chose desirable,desirable fac.,"(3.81e+03,5.83e+03]",FALSE,508
365,65,X4,1,1,1,1,tv,9,4,0.444444444,2439,4767,8.469472455,0,101010100,1,-0.055555556,0.444444444,5,-1,-1,4,1,1,1,chose desirable,desirable fac.,"(3.81e+03,5.83e+03]",FALSE,367
366,66,X4,1,0,0,1,ph,10,6,0.6,1174,5046,8.526351129,0,1110011100,1,0.1,0.6,4,2,2,6,1,1,1,chose desirable,desirable fac.,"(3.81e+03,5.83e+03]",FALSE,96
367,67,X4,0,0,1,1,ph,6,2,0.333333333,322278,3197,8.069968149,0,1001,0,-0.166666667,0.666666667,4,-2,2,4,0,1,-1,chose undesirable,desirable fac.,"(2.26e+03,3.81e+03]",FALSE,447
368,68,X4,0,0,0,0,tv,4,1,0.25,400,2039,7.620214771,0,100,1,-0.25,0.75,3,-2,2,3,1,-1,-1,chose undesirable,undesirable fac.,"[0,2.26e+03]",FALSE,389
369,69,X4,1,1,1,1,tv,24,13,0.541666667,1320,12744,9.452815852,0,1.01E+22,1,0.041666667,0.541666667,11,2,2,13,1,1,1,chose desirable,desirable fac.,"(9.1e+03,1.77e+05]",FALSE,94
370,70,X4,0,1,1,0,ph,11,3,0.272727273,416,6048,8.707482918,0,101001,1,-0.227272727,0.727272727,8,-5,5,8,1,-1,-1,chose undesirable,undesirable fac.,"(5.83e+03,9.1e+03]",FALSE,548
371,71,X4,0,0,1,1,ph,6,2,0.333333333,423,2774,7.928045601,0,1001,0,-0.166666667,0.666666667,4,-2,2,4,0,1,-1,chose undesirable,desirable fac.,"(2.26e+03,3.81e+03]",FALSE,24
372,72,X4,0,1,1,0,ph,11,4,0.363636364,494,5529,8.617762246,0,11000010001,1,-0.136363636,0.636363636,7,-3,3,7,1,-1,-1,chose undesirable,undesirable fac.,"(3.81e+03,5.83e+03]",FALSE,29
373,73,X4,0,1,1,0,ph,15,6,0.4,2252,7928,8.978156076,0,1.10E+13,1,-0.1,0.6,9,-3,3,9,1,-1,-1,chose undesirable,undesirable fac.,"(5.83e+03,9.1e+03]",FALSE,228
374,74,X4,1,0,0,1,ph,11,10,0.909090909,785,5823,8.669570872,0,11111111110,1,0.409090909,0.909090909,1,9,9,10,1,1,1,chose desirable,desirable fac.,"(3.81e+03,5.83e+03]",FALSE,323
375,75,X4,1,0,0,1,ph,9,6,0.666666667,759,4607,8.435332165,0,110011110,1,0.166666667,0.666666667,3,3,3,6,1,1,1,chose desirable,desirable fac.,"(3.81e+03,5.83e+03]",FALSE,207
376,76,X4,0,1,1,0,ph,23,9,0.391304348,672,12648,9.445254379,0,1.01E+22,1,-0.108695652,0.608695652,14,-5,5,14,1,-1,-1,chose undesirable,undesirable fac.,"(9.1e+03,1.77e+05]",FALSE,548
378,78,X4,0,1,1,0,ph,4,2,0.5,475,2087,7.643482907,0,1001,1,0,0.5,2,0,0,2,1,-1,-1,chose undesirable,undesirable fac.,"[0,2.26e+03]",FALSE,437
379,79,X4,0,1,1,0,ph,2,1,0.5,797,922,6.826545224,0,1,1,0,0.5,1,0,0,1,1,-1,-1,chose undesirable,undesirable fac.,"[0,2.26e+03]",FALSE,372
380,80,X4,0,0,0,0,tv,14,3,0.214285714,2567,7216,8.884056062,0,1000101,1,-0.285714286,0.785714286,11,-8,8,11,1,-1,-1,chose undesirable,undesirable fac.,"(5.83e+03,9.1e+03]",FALSE,66
381,81,X4,0,0,0,0,tv,34,13,0.382352941,590,18407,9.820486306,0,1.00E+33,1,-0.117647059,0.617647059,21,-8,8,21,1,-1,-1,chose undesirable,undesirable fac.,"(9.1e+03,1.77e+05]",FALSE,257
382,82,X4,0,1,1,0,ph,16,5,0.3125,6097,8626,9.062536177,0,1.00E+14,1,-0.1875,0.6875,11,-6,6,11,1,-1,-1,chose undesirable,undesirable fac.,"(5.83e+03,9.1e+03]",FALSE,376
383,83,X4,0,1,1,0,ph,11,4,0.363636364,5319,5505,8.613412049,0,11010000010,1,-0.136363636,0.636363636,7,-3,3,7,1,-1,-1,chose undesirable,undesirable fac.,"(3.81e+03,5.83e+03]",FALSE,5
384,84,X4,1,0,0,1,ph,12,9,0.75,1496,6583,8.792245847,0,1.11E+11,1,0.25,0.75,3,6,6,9,1,1,1,chose desirable,desirable fac.,"(5.83e+03,9.1e+03]",FALSE,533
385,85,X4,1,1,1,1,tv,9,8,0.888888889,722,4574,8.428143375,3,11111111,1,0.388888889,0.888888889,1,7,7,8,1,1,1,chose desirable,desirable fac.,"(3.81e+03,5.83e+03]",FALSE,174
386,86,X4,1,1,1,1,tv,17,11,0.647058824,985,8845,9.087607607,5,1.11E+15,1,0.147058824,0.647058824,6,5,5,11,1,1,1,chose desirable,desirable fac.,"(5.83e+03,9.1e+03]",FALSE,45
388,88,X4,0,1,1,0,ph,4,1,0.25,1427,1948,7.574558484,2,100,1,-0.25,0.75,3,-2,2,3,1,-1,-1,chose undesirable,undesirable fac.,"[0,2.26e+03]",FALSE,298
389,89,X4,0,1,1,0,ph,21,8,0.380952381,816,11101,9.314790473,0,1.10E+19,1,-0.119047619,0.619047619,13,-5,5,13,1,-1,-1,chose undesirable,undesirable fac.,"(9.1e+03,1.77e+05]",FALSE,101
390,90,X4,0,0,1,1,ph,5,1,0.2,2042,2217,7.70391021,0,1,0,-0.3,0.8,4,-3,3,4,0,1,-1,chose undesirable,desirable fac.,"[0,2.26e+03]",FALSE,17
392,92,X4,1,0,1,0,tv,27,11,0.407407407,1004,14315,9.569063218,0,1.01E+26,0,-0.092592593,0.407407407,16,-5,-5,11,0,-1,1,chose desirable,undesirable fac.,"(9.1e+03,1.77e+05]",FALSE,15
393,93,X4,1,0,0,1,ph,13,10,0.769230769,2983,6631,8.799510901,0,1.11E+12,1,0.269230769,0.769230769,3,7,7,10,1,1,1,chose desirable,desirable fac.,"(5.83e+03,9.1e+03]",FALSE,31
394,94,X4,0,0,0,0,tv,14,5,0.357142857,666,7458,8.917042561,2,1.01E+12,1,-0.142857143,0.642857143,9,-4,4,9,1,-1,-1,chose undesirable,undesirable fac.,"(5.83e+03,9.1e+03]",FALSE,308
395,95,X4,1,1,0,0,ph,15,8,0.533333333,654,7974,8.983941528,0,1.10E+13,0,0.033333333,0.533333333,7,1,1,8,0,-1,1,chose desirable,undesirable fac.,"(5.83e+03,9.1e+03]",FALSE,274
396,96,X4,1,1,1,1,tv,11,9,0.818181818,1825,5838,8.672143551,0,11001111111,1,0.318181818,0.818181818,2,7,7,9,1,1,1,chose desirable,desirable fac.,"(5.83e+03,9.1e+03]",FALSE,338
397,97,X4,1,0,0,1,ph,24,15,0.625,927,12864,9.462187991,0,1.11E+23,1,0.125,0.625,9,6,6,15,1,1,1,chose desirable,desirable fac.,"(9.1e+03,1.77e+05]",FALSE,214
398,98,X4,1,1,1,1,tv,17,10,0.588235294,2494,9315,9.139381283,0,1.11E+12,1,0.088235294,0.588235294,7,3,3,10,1,1,1,chose desirable,desirable fac.,"(9.1e+03,1.77e+05]",FALSE,515
399,99,X4,0,0,1,1,ph,9,4,0.444444444,2822,4913,8.499640032,4,1001011,0,-0.055555556,0.555555556,5,-1,1,5,0,1,-1,chose undesirable,desirable fac.,"(3.81e+03,5.83e+03]",FALSE,513
400,100,X4,0,1,1,0,ph,8,3,0.375,14873,4281,8.361941906,1,1110,1,-0.125,0.625,5,-2,2,5,1,-1,-1,chose undesirable,undesirable fac.,"(3.81e+03,5.83e+03]",FALSE,431
402,2,X5,1,0,0,1,ph,3,1,0.333333333,1031,1596,7.375255778,0,10,1,-0.166666667,0.333333333,2,-1,-1,1,1,1,1,chose desirable,desirable fac.,"[0,2.26e+03]",FALSE,496
403,3,X5,0,1,1,0,ph,9,3,0.333333333,915,4404,8.390268498,0,11010000,1,-0.166666667,0.666666667,6,-3,3,6,1,-1,-1,chose undesirable,undesirable fac.,"(3.81e+03,5.83e+03]",FALSE,4
404,4,X5,0,1,1,0,ph,17,7,0.411764706,2007,9070,9.112727543,0,1.10E+15,1,-0.088235294,0.588235294,10,-3,3,10,1,-1,-1,chose undesirable,undesirable fac.,"(5.83e+03,9.1e+03]",FALSE,270
406,6,X5,0,1,1,0,ph,6,1,0.166666667,1182,2936,7.98480339,0,100000,1,-0.333333333,0.833333333,5,-4,4,5,1,-1,-1,chose undesirable,undesirable fac.,"(2.26e+03,3.81e+03]",FALSE,186
407,7,X5,0,0,0,0,tv,4,1,0.25,118,1993,7.59739632,0,1000,1,-0.25,0.75,3,-2,2,3,1,-1,-1,chose undesirable,undesirable fac.,"[0,2.26e+03]",FALSE,343
408,8,X5,0,0,0,0,tv,8,3,0.375,415,4328,8.372860821,0,10010010,1,-0.125,0.625,5,-2,2,5,1,-1,-1,chose undesirable,undesirable fac.,"(3.81e+03,5.83e+03]",FALSE,478
409,9,X5,1,0,0,1,ph,19,10,0.526315789,1729,10093,9.219597393,1,1.01E+18,1,0.026315789,0.526315789,9,1,1,10,1,1,1,chose desirable,desirable fac.,"(9.1e+03,1.77e+05]",FALSE,193
411,11,X5,0,1,1,0,ph,12,3,0.25,773,6374,8.759982495,0,10100010000,1,-0.25,0.75,9,-6,6,9,1,-1,-1,chose undesirable,undesirable fac.,"(5.83e+03,9.1e+03]",FALSE,324
412,12,X5,0,0,0,0,tv,19,9,0.473684211,1085,9920,9.2023082,0,1.10E+17,1,-0.026315789,0.526315789,10,-1,1,10,1,-1,-1,chose undesirable,undesirable fac.,"(9.1e+03,1.77e+05]",FALSE,20
413,13,X5,1,0,1,0,tv,24,12,0.5,677,13037,9.475546748,2,1.10E+22,0,0,0.5,12,0,0,12,0,-1,1,chose desirable,undesirable fac.,"(9.1e+03,1.77e+05]",FALSE,387
414,14,X5,1,0,0,1,ph,16,7,0.4375,3125,8488,9.04640868,0,1.00E+15,1,-0.0625,0.4375,9,-2,-2,7,1,1,1,chose desirable,desirable fac.,"(5.83e+03,9.1e+03]",FALSE,238
415,15,X5,1,1,1,1,tv,15,11,0.733333333,5252,7949,8.980801414,0,1.10E+14,1,0.233333333,0.733333333,4,7,7,11,1,1,1,chose desirable,desirable fac.,"(5.83e+03,9.1e+03]",FALSE,249
416,16,X5,0,0,0,0,tv,13,5,0.384615385,959,6968,8.849083519,0,1.01E+11,1,-0.115384615,0.615384615,8,-3,3,8,1,-1,-1,chose undesirable,undesirable fac.,"(5.83e+03,9.1e+03]",FALSE,368
417,17,X5,0,1,1,0,ph,8,0,0,994,3941,8.279189777,0,0,1,-0.5,1,8,-8,8,8,1,-1,-1,chose undesirable,undesirable fac.,"(3.81e+03,5.83e+03]",FALSE,91
418,18,X5,1,1,1,1,tv,9,4,0.444444444,2006,4874,8.491670234,0,111100,1,-0.055555556,0.444444444,5,-1,-1,4,1,1,1,chose desirable,desirable fac.,"(3.81e+03,5.83e+03]",FALSE,474
419,19,X5,1,0,0,1,ph,9,6,0.666666667,382,4792,8.47470314,0,11100111,1,0.166666667,0.666666667,3,3,3,6,1,1,1,chose desirable,desirable fac.,"(3.81e+03,5.83e+03]",FALSE,392
420,20,X5,0,1,1,0,ph,5,0,0,754,2376,7.77317368,0,0,1,-0.5,1,5,-5,5,5,1,-1,-1,chose undesirable,undesirable fac.,"(2.26e+03,3.81e+03]",FALSE,176
421,21,X5,1,1,1,1,tv,12,6,0.5,1237,6127,8.720460513,3,10111110,1,0,0.5,6,0,0,6,1,1,1,chose desirable,desirable fac.,"(5.83e+03,9.1e+03]",FALSE,77
422,22,X5,1,0,0,1,ph,7,6,0.857142857,1286,3848,8.255308812,0,1011111,1,0.357142857,0.857142857,1,5,5,6,1,1,1,chose desirable,desirable fac.,"(3.81e+03,5.83e+03]",FALSE,548
423,23,X5,0,1,1,0,ph,23,8,0.347826087,82,12347,9.421168398,0,1.00E+22,1,-0.152173913,0.652173913,15,-7,7,15,1,-1,-1,chose undesirable,undesirable fac.,"(9.1e+03,1.77e+05]",FALSE,247
424,24,X5,0,0,0,0,tv,14,4,0.285714286,3,7275,8.892199092,7,1.00E+13,1,-0.214285714,0.714285714,10,-6,6,10,1,-1,-1,chose undesirable,undesirable fac.,"(5.83e+03,9.1e+03]",FALSE,125
425,25,X5,0,1,0,1,tv,6,2,0.333333333,277,2839,7.951207156,0,1001,0,-0.166666667,0.666666667,4,-2,2,4,0,1,-1,chose undesirable,desirable fac.,"(2.26e+03,3.81e+03]",FALSE,89
427,27,X5,1,0,0,1,ph,11,8,0.727272727,806,5983,8.696677393,0,11011110011,1,0.227272727,0.727272727,3,5,5,8,1,1,1,chose desirable,desirable fac.,"(5.83e+03,9.1e+03]",FALSE,483
428,28,X5,0,1,0,1,tv,17,7,0.411764706,844,9215,9.12858787,0,1.00E+15,0,-0.088235294,0.588235294,10,-3,3,10,0,1,-1,chose undesirable,desirable fac.,"(9.1e+03,1.77e+05]",FALSE,415
429,29,X5,1,1,1,1,tv,22,15,0.681818182,587,11702,9.367515046,0,1.11E+21,1,0.181818182,0.681818182,7,8,8,15,1,1,1,chose desirable,desirable fac.,"(9.1e+03,1.77e+05]",FALSE,152
430,30,X5,1,0,0,1,ph,6,4,0.666666667,1055,2838,7.950854858,3,110110,1,0.166666667,0.666666667,2,2,2,4,1,1,1,chose desirable,desirable fac.,"(2.26e+03,3.81e+03]",FALSE,88
431,31,X5,0,1,1,0,ph,40,15,0.375,605,21561,9.978641406,0,1.00E+36,1,-0.125,0.625,25,-10,10,25,1,-1,-1,chose undesirable,undesirable fac.,"(9.1e+03,1.77e+05]",FALSE,111
432,32,X5,0,1,1,0,ph,5,2,0.4,855,2703,7.902117546,0,10001,1,-0.1,0.6,3,-1,1,3,1,-1,-1,chose undesirable,undesirable fac.,"(2.26e+03,3.81e+03]",FALSE,503
433,33,X5,1,0,0,1,ph,39,18,0.461538462,1554,20967,9.950705052,0,1.00E+38,1,-0.038461538,0.461538462,21,-3,-3,18,1,1,1,chose desirable,desirable fac.,"(9.1e+03,1.77e+05]",FALSE,67
434,34,X5,1,1,1,1,tv,6,5,0.833333333,782,3033,8.017307508,0,111110,1,0.333333333,0.833333333,1,4,4,5,1,1,1,chose desirable,desirable fac.,"(2.26e+03,3.81e+03]",FALSE,283
437,37,X5,1,1,1,1,tv,13,8,0.615384615,263,6675,8.806124483,0,1.11E+11,1,0.115384615,0.615384615,5,3,3,8,1,1,1,chose desirable,desirable fac.,"(5.83e+03,9.1e+03]",FALSE,75
438,38,X5,1,0,1,0,tv,22,10,0.454545455,3249,11998,9.392495248,0,1.00E+20,0,-0.045454545,0.454545455,12,-2,-2,10,0,-1,1,chose desirable,undesirable fac.,"(9.1e+03,1.77e+05]",FALSE,448
439,39,X5,0,0,0,0,tv,13,5,0.384615385,1748,7084,8.865593999,0,1.11E+11,1,-0.115384615,0.615384615,8,-3,3,8,1,-1,-1,chose undesirable,undesirable fac.,"(5.83e+03,9.1e+03]",FALSE,484
440,40,X5,0,0,1,1,ph,13,5,0.384615385,670,6939,8.844912951,0,1.10E+12,0,-0.115384615,0.615384615,8,-3,3,8,0,1,-1,chose undesirable,desirable fac.,"(5.83e+03,9.1e+03]",FALSE,339
441,41,X5,1,0,0,1,ph,28,18,0.642857143,2139,15175,9.627404616,1,1.10E+27,1,0.142857143,0.642857143,10,8,8,18,1,1,1,chose desirable,desirable fac.,"(9.1e+03,1.77e+05]",FALSE,325
442,42,X5,1,0,0,1,ph,32,20,0.625,2544,17215,9.753536376,0,1.11E+31,1,0.125,0.625,12,8,8,20,1,1,1,chose desirable,desirable fac.,"(9.1e+03,1.77e+05]",FALSE,165
443,43,X5,1,1,0,0,ph,5,4,0.8,583,2471,7.812378206,0,11110,0,0.3,0.8,1,3,3,4,0,-1,1,chose desirable,undesirable fac.,"(2.26e+03,3.81e+03]",FALSE,271
444,44,X5,1,0,1,0,tv,3,2,0.666666667,2373,1514,7.322510434,0,101,0,0.166666667,0.666666667,1,1,1,2,0,-1,1,chose desirable,undesirable fac.,"[0,2.26e+03]",FALSE,414
445,45,X5,0,0,0,0,tv,68,30,0.441176471,4376,37241,10.52516558,0,1.01E+67,1,-0.058823529,0.558823529,38,-8,8,38,1,-1,-1,chose undesirable,undesirable fac.,"(9.1e+03,1.77e+05]",FALSE,391
446,46,X5,0,0,0,0,tv,12,3,0.25,14036,6568,8.789964651,0,1.00E+11,1,-0.25,0.75,9,-6,6,9,1,-1,-1,chose undesirable,undesirable fac.,"(5.83e+03,9.1e+03]",FALSE,518
447,47,X5,1,1,0,0,ph,9,8,0.888888889,636,4426,8.395251521,0,11111111,0,0.388888889,0.888888889,1,7,7,8,0,-1,1,chose desirable,undesirable fac.,"(3.81e+03,5.83e+03]",FALSE,26
448,48,X5,0,0,0,0,tv,5,0,0,919,2585,7.857480787,2,0,1,-0.5,1,5,-5,5,5,1,-1,-1,chose undesirable,undesirable fac.,"(2.26e+03,3.81e+03]",FALSE,385
449,49,X5,0,1,1,0,ph,31,13,0.419354839,471,16512,9.711842668,0,1.11E+28,1,-0.080645161,0.580645161,18,-5,5,18,1,-1,-1,chose undesirable,undesirable fac.,"(9.1e+03,1.77e+05]",FALSE,12
450,50,X5,1,1,0,0,ph,11,8,0.727272727,41,5811,8.667507952,0,1100111111,0,0.227272727,0.727272727,3,5,5,8,0,-1,1,chose desirable,undesirable fac.,"(3.81e+03,5.83e+03]",FALSE,311
451,51,X5,1,1,1,1,tv,23,17,0.739130435,4891,12176,9.40722208,2,1.10E+22,1,0.239130435,0.739130435,6,11,11,17,1,1,1,chose desirable,desirable fac.,"(9.1e+03,1.77e+05]",FALSE,76
453,53,X5,1,1,1,1,tv,15,9,0.6,3230,8208,9.012864567,0,1.10E+11,1,0.1,0.6,6,3,3,9,1,1,1,chose desirable,desirable fac.,"(5.83e+03,9.1e+03]",FALSE,508
454,54,X5,0,0,1,1,ph,5,1,0.2,221,2736,7.914252279,0,10000,0,-0.3,0.8,4,-3,3,4,0,1,-1,chose undesirable,desirable fac.,"(2.26e+03,3.81e+03]",FALSE,536
455,55,X5,1,1,1,1,tv,7,5,0.714285714,1736,3701,8.216358332,0,1101110,1,0.214285714,0.714285714,2,3,3,5,1,1,1,chose desirable,desirable fac.,"(2.26e+03,3.81e+03]",FALSE,401
456,56,X5,1,1,1,1,tv,28,18,0.642857143,1814,14998,9.615672138,0,1.11E+27,1,0.142857143,0.642857143,10,8,8,18,1,1,1,chose desirable,desirable fac.,"(9.1e+03,1.77e+05]",FALSE,148
457,57,X5,1,1,1,1,tv,4,4,1,4178,1927,7.563719668,1,1111,1,0.5,1,0,4,4,4,1,1,1,chose desirable,desirable fac.,"[0,2.26e+03]",FALSE,277
459,59,X5,0,1,1,0,ph,11,4,0.363636364,1447,5584,8.627660644,0,10100010010,1,-0.136363636,0.636363636,7,-3,3,7,1,-1,-1,chose undesirable,undesirable fac.,"(3.81e+03,5.83e+03]",FALSE,84
460,60,X5,1,0,1,0,tv,15,8,0.533333333,35,8112,9.001099726,2,1.10E+13,0,0.033333333,0.533333333,7,1,1,8,0,-1,1,chose desirable,undesirable fac.,"(5.83e+03,9.1e+03]",FALSE,412
461,61,X5,0,0,0,0,tv,8,2,0.25,744,4168,8.335191583,0,1000001,1,-0.25,0.75,6,-4,4,6,1,-1,-1,chose undesirable,undesirable fac.,"(3.81e+03,5.83e+03]",FALSE,318
462,62,X5,0,0,0,0,tv,12,4,0.333333333,655,6151,8.724369949,0,11010100,1,-0.166666667,0.666666667,8,-4,4,8,1,-1,-1,chose undesirable,undesirable fac.,"(5.83e+03,9.1e+03]",FALSE,101
463,63,X5,0,0,0,0,tv,14,3,0.214285714,774,7214,8.883778861,0,1.01E+13,1,-0.285714286,0.785714286,11,-8,8,11,1,-1,-1,chose undesirable,undesirable fac.,"(5.83e+03,9.1e+03]",FALSE,64
464,64,X5,1,1,1,1,tv,11,7,0.636363636,955,5960,8.69282576,0,10001110111,1,0.136363636,0.636363636,4,3,3,7,1,1,1,chose desirable,desirable fac.,"(5.83e+03,9.1e+03]",FALSE,460
465,65,X5,0,0,0,0,tv,13,4,0.307692308,951,6847,8.831565879,0,1.00E+12,1,-0.192307692,0.692307692,9,-5,5,9,1,-1,-1,chose undesirable,undesirable fac.,"(5.83e+03,9.1e+03]",FALSE,247
466,66,X5,1,1,0,0,ph,5,2,0.4,1856,2749,7.918992488,0,101,0,-0.1,0.4,3,-1,-1,2,0,-1,1,chose desirable,undesirable fac.,"(2.26e+03,3.81e+03]",FALSE,549
467,67,X5,1,0,0,1,ph,8,5,0.625,567,4251,8.354909528,0,11001110,1,0.125,0.625,3,2,2,5,1,1,1,chose desirable,desirable fac.,"(3.81e+03,5.83e+03]",FALSE,401
468,68,X5,1,0,1,0,tv,3,2,0.666666667,199,1296,7.167037877,0,110,0,0.166666667,0.666666667,1,1,1,2,0,-1,1,chose desirable,undesirable fac.,"[0,2.26e+03]",FALSE,196
469,69,X5,0,0,0,0,tv,28,13,0.464285714,7520,15049,9.619066823,0,1.10E+26,1,-0.035714286,0.535714286,15,-2,2,15,1,-1,-1,chose undesirable,undesirable fac.,"(9.1e+03,1.77e+05]",FALSE,199
470,70,X5,0,0,1,1,ph,16,6,0.375,543,8352,9.03025631,0,1.00E+14,0,-0.125,0.625,10,-4,4,10,0,1,-1,chose undesirable,desirable fac.,"(5.83e+03,9.1e+03]",FALSE,102
471,71,X5,0,1,1,0,ph,8,2,0.25,517,4330,8.373322821,1,10010000,1,-0.25,0.75,6,-4,4,6,1,-1,-1,chose undesirable,undesirable fac.,"(3.81e+03,5.83e+03]",FALSE,480
472,72,X5,1,1,0,0,ph,6,6,1,568,2878,7.964850887,0,111111,0,0.5,1,0,6,6,6,0,-1,1,chose desirable,undesirable fac.,"(2.26e+03,3.81e+03]",FALSE,128
473,73,X5,1,0,0,1,ph,19,12,0.631578947,2837,10087,9.219002745,0,1.11E+18,1,0.131578947,0.631578947,7,5,5,12,1,1,1,chose desirable,desirable fac.,"(9.1e+03,1.77e+05]",FALSE,187
474,74,X5,0,1,1,0,ph,15,4,0.266666667,256,7895,8.973984927,0,1.00E+14,1,-0.233333333,0.733333333,11,-7,7,11,1,-1,-1,chose undesirable,undesirable fac.,"(5.83e+03,9.1e+03]",FALSE,195
475,75,X5,1,1,0,0,ph,22,12,0.545454545,710,12033,9.395408154,0,1.00E+20,0,0.045454545,0.545454545,10,2,2,12,0,-1,1,chose desirable,undesirable fac.,"(9.1e+03,1.77e+05]",FALSE,483
476,76,X5,1,0,0,1,ph,11,9,0.818181818,582,5800,8.665613197,0,11100111111,1,0.318181818,0.818181818,2,7,7,9,1,1,1,chose desirable,desirable fac.,"(3.81e+03,5.83e+03]",FALSE,300
478,78,X5,1,0,0,1,ph,4,2,0.5,234,2044,7.622663951,0,110,1,0,0.5,2,0,0,2,1,1,1,chose desirable,desirable fac.,"[0,2.26e+03]",FALSE,394
479,79,X5,1,0,0,1,ph,3,1,0.333333333,1328,1600,7.377758908,1,1,1,-0.166666667,0.333333333,2,-1,-1,1,1,1,1,chose desirable,desirable fac.,"[0,2.26e+03]",FALSE,500
480,80,X5,0,0,0,0,tv,21,6,0.285714286,792,11489,9.349145335,0,1.01E+19,1,-0.214285714,0.714285714,15,-9,9,15,1,-1,-1,chose undesirable,undesirable fac.,"(9.1e+03,1.77e+05]",FALSE,489
481,81,X5,1,0,1,0,tv,13,9,0.692307692,320,6960,8.847934753,0,1.11E+11,0,0.192307692,0.692307692,4,5,5,9,0,-1,1,chose desirable,undesirable fac.,"(5.83e+03,9.1e+03]",FALSE,360
482,82,X5,1,1,0,0,ph,12,7,0.583333333,2712,6262,8.742254902,0,1110111010,0,0.083333333,0.583333333,5,2,2,7,0,-1,1,chose desirable,undesirable fac.,"(5.83e+03,9.1e+03]",FALSE,212
483,83,X5,1,0,0,1,ph,36,22,0.611111111,1916,19350,9.870447698,0,1.00E+34,1,0.111111111,0.611111111,14,8,8,22,1,1,1,chose desirable,desirable fac.,"(9.1e+03,1.77e+05]",FALSE,100
484,84,X5,1,0,0,1,ph,12,9,0.75,3015,6440,8.770283819,0,1.11E+11,1,0.25,0.75,3,6,6,9,1,1,1,chose desirable,desirable fac.,"(5.83e+03,9.1e+03]",FALSE,390
485,85,X5,0,0,0,0,tv,15,6,0.4,1332,7830,8.965717789,5,1.01E+13,1,-0.1,0.6,9,-3,3,9,1,-1,-1,chose undesirable,undesirable fac.,"(5.83e+03,9.1e+03]",FALSE,130
486,86,X5,0,0,0,0,tv,8,1,0.125,731,4273,8.360071436,2,10000000,1,-0.375,0.875,7,-6,6,7,1,-1,-1,chose undesirable,undesirable fac.,"(3.81e+03,5.83e+03]",FALSE,423
489,89,X5,0,1,1,0,ph,14,4,0.285714286,1137,7391,8.908018323,0,1.00E+12,1,-0.214285714,0.714285714,10,-6,6,10,1,-1,-1,chose undesirable,undesirable fac.,"(5.83e+03,9.1e+03]",FALSE,241
490,90,X5,0,1,1,0,ph,7,3,0.428571429,1159,3674,8.209036266,0,1010001,1,-0.071428571,0.571428571,4,-1,1,4,1,-1,-1,chose undesirable,undesirable fac.,"(2.26e+03,3.81e+03]",FALSE,374
491,91,X5,1,0,0,1,ph,35,21,0.6,5666,18878,9.845752502,14,1.00E+34,1,0.1,0.6,14,7,7,21,1,1,1,chose desirable,desirable fac.,"(9.1e+03,1.77e+05]",FALSE,178
492,92,X5,0,0,0,0,tv,15,4,0.266666667,606,8152,9.006018575,0,10010100010,1,-0.233333333,0.733333333,11,-7,7,11,1,-1,-1,chose undesirable,undesirable fac.,"(5.83e+03,9.1e+03]",FALSE,452
493,93,X5,0,1,1,0,ph,31,16,0.516129032,1873,17040,9.7433188,0,1.00E+27,1,0.016129032,0.483870968,15,1,-1,15,1,-1,-1,chose undesirable,undesirable fac.,"(9.1e+03,1.77e+05]",FALSE,540
494,94,X5,0,0,0,0,tv,7,3,0.428571429,1167,3811,8.245646901,1,110001,1,-0.071428571,0.571428571,4,-1,1,4,1,-1,-1,chose undesirable,undesirable fac.,"(3.81e+03,5.83e+03]",FALSE,511
495,95,X5,0,1,1,0,ph,4,0,0,1299,1675,7.423568444,0,0,1,-0.5,1,4,-4,4,4,1,-1,-1,chose undesirable,undesirable fac.,"[0,2.26e+03]",FALSE,25
496,96,X5,0,0,0,0,tv,16,3,0.1875,713,8604,9.05998249,0,1.00E+15,1,-0.3125,0.8125,13,-10,10,13,1,-1,-1,chose undesirable,undesirable fac.,"(5.83e+03,9.1e+03]",FALSE,354
497,97,X5,1,0,0,1,ph,28,17,0.607142857,1848,15343,9.638414623,0,1.10E+25,1,0.107142857,0.607142857,11,6,6,17,1,1,1,chose desirable,desirable fac.,"(9.1e+03,1.77e+05]",FALSE,493
498,98,X5,1,0,1,0,tv,18,11,0.611111111,1872,9734,9.18338019,0,1.01E+15,0,0.111111111,0.611111111,7,4,4,11,0,-1,1,chose desirable,undesirable fac.,"(9.1e+03,1.77e+05]",FALSE,384
499,99,X5,1,0,0,1,ph,18,10,0.555555556,1676,9372,9.1454818,8,1.01E+17,1,0.055555556,0.555555556,8,2,2,10,1,1,1,chose desirable,desirable fac.,"(9.1e+03,1.77e+05]",FALSE,22
500,100,X5,0,1,1,0,ph,8,2,0.25,15536,3891,8.266421473,1,10000010,1,-0.25,0.75,6,-4,4,6,1,-1,-1,chose undesirable,undesirable fac.,"(3.81e+03,5.83e+03]",FALSE,41
502,2,X6,1,0,0,1,ph,6,4,0.666666667,1378,2801,7.937731775,0,110101,1,0.166666667,0.666666667,2,2,2,4,1,1,1,chose desirable,desirable fac.,"(2.26e+03,3.81e+03]",FALSE,51
503,3,X6,0,1,1,0,ph,9,3,0.333333333,710,4487,8.408939606,0,111000,1,-0.166666667,0.666666667,6,-3,3,6,1,-1,-1,chose undesirable,undesirable fac.,"(3.81e+03,5.83e+03]",FALSE,87
504,4,X6,1,0,0,1,ph,9,7,0.777777778,1093,4452,8.401108712,0,10111111,1,0.277777778,0.777777778,2,5,5,7,1,1,1,chose desirable,desirable fac.,"(3.81e+03,5.83e+03]",FALSE,52
506,6,X6,1,0,0,1,ph,5,3,0.6,838,2704,7.902487437,0,10110,1,0.1,0.6,2,1,1,3,1,1,1,chose desirable,desirable fac.,"(2.26e+03,3.81e+03]",FALSE,504
507,7,X6,1,1,1,1,tv,3,2,0.666666667,391,1343,7.202661197,0,110,1,0.166666667,0.666666667,1,1,1,2,1,1,1,chose desirable,desirable fac.,"[0,2.26e+03]",FALSE,243
508,8,X6,1,1,1,1,tv,7,4,0.571428571,550,3809,8.245121966,0,101110,1,0.071428571,0.571428571,3,1,1,4,1,1,1,chose desirable,desirable fac.,"(3.81e+03,5.83e+03]",FALSE,509
509,9,X6,1,0,0,1,ph,8,6,0.75,906,4243,8.353025845,1,111111,1,0.25,0.75,2,4,4,6,1,1,1,chose desirable,desirable fac.,"(3.81e+03,5.83e+03]",FALSE,393
511,11,X6,1,0,0,1,ph,9,5,0.555555556,1668,4885,8.493924564,0,1010111,1,0.055555556,0.555555556,4,1,1,5,1,1,1,chose desirable,desirable fac.,"(3.81e+03,5.83e+03]",FALSE,485
512,12,X6,0,0,0,0,tv,14,7,0.5,347,7332,8.900003609,0,1.01E+13,1,0,0.5,7,0,0,7,1,-1,-1,chose undesirable,undesirable fac.,"(5.83e+03,9.1e+03]",FALSE,182
513,13,X6,1,1,1,1,tv,13,9,0.692307692,484,6956,8.847359875,2,1.10E+11,1,0.192307692,0.692307692,4,5,5,9,1,1,1,chose desirable,desirable fac.,"(5.83e+03,9.1e+03]",FALSE,356
514,14,X6,0,1,1,0,ph,11,2,0.181818182,2006,5878,8.678971847,0,101,1,-0.318181818,0.818181818,9,-7,7,9,1,-1,-1,chose undesirable,undesirable fac.,"(5.83e+03,9.1e+03]",FALSE,378
515,15,X6,0,0,0,0,tv,20,7,0.35,218,10669,9.275097619,0,1.01E+19,1,-0.15,0.65,13,-6,6,13,1,-1,-1,chose undesirable,undesirable fac.,"(9.1e+03,1.77e+05]",FALSE,219
516,16,X6,0,1,0,1,tv,17,7,0.411764706,790,9000,9.104979856,0,1.00E+15,0,-0.088235294,0.588235294,10,-3,3,10,0,1,-1,chose undesirable,desirable fac.,"(5.83e+03,9.1e+03]",FALSE,200
517,17,X6,0,0,1,1,ph,25,11,0.44,767,13359,9.499945594,0,1.10E+24,0,-0.06,0.56,14,-3,3,14,0,1,-1,chose undesirable,desirable fac.,"(9.1e+03,1.77e+05]",FALSE,159
518,18,X6,0,0,0,0,tv,13,5,0.384615385,887,7137,8.873047799,0,1.00E+12,1,-0.115384615,0.615384615,8,-3,3,8,1,-1,-1,chose undesirable,undesirable fac.,"(5.83e+03,9.1e+03]",FALSE,537
519,19,X6,0,0,1,1,ph,14,6,0.428571429,371,7276,8.89233654,0,1.01E+12,0,-0.071428571,0.571428571,8,-2,2,8,0,1,-1,chose undesirable,desirable fac.,"(5.83e+03,9.1e+03]",FALSE,126
520,20,X6,1,1,0,0,ph,7,5,0.714285714,957,3610,8.191463051,0,1101011,0,0.214285714,0.714285714,2,3,3,5,0,-1,1,chose desirable,undesirable fac.,"(2.26e+03,3.81e+03]",FALSE,310
521,21,X6,1,1,1,1,tv,23,10,0.434782609,1187,12532,9.436040652,3,1.00E+20,1,-0.065217391,0.434782609,13,-3,-3,10,1,1,1,chose desirable,desirable fac.,"(9.1e+03,1.77e+05]",FALSE,432
522,22,X6,0,0,1,1,ph,6,5,0.833333333,158,3049,8.022568947,0,101111,0,0.333333333,0.166666667,1,4,-4,1,0,1,-1,chose undesirable,desirable fac.,"(2.26e+03,3.81e+03]",FALSE,299
523,23,X6,1,1,0,0,ph,21,13,0.619047619,14167,11092,9.313979407,0,1.00E+19,0,0.119047619,0.619047619,8,5,5,13,0,-1,1,chose desirable,undesirable fac.,"(9.1e+03,1.77e+05]",FALSE,92
524,24,X6,0,0,0,0,tv,35,11,0.314285714,104,18718,9.837240907,17,1.01E+34,1,-0.185714286,0.685714286,24,-13,13,24,1,-1,-1,chose undesirable,undesirable fac.,"(9.1e+03,1.77e+05]",FALSE,18
525,25,X6,0,0,0,0,tv,5,1,0.2,462,2711,7.905072849,0,10,1,-0.3,0.8,4,-3,3,4,1,-1,-1,chose undesirable,undesirable fac.,"(2.26e+03,3.81e+03]",FALSE,511
526,26,X6,1,1,1,1,tv,13,9,0.692307692,125,6771,8.820404065,3,1.10E+12,1,0.192307692,0.692307692,4,5,5,9,1,1,1,chose desirable,desirable fac.,"(5.83e+03,9.1e+03]",FALSE,171
527,27,X6,1,0,0,1,ph,10,9,0.9,478,5471,8.607216694,0,1111111011,1,0.4,0.9,1,8,8,9,1,1,1,chose desirable,desirable fac.,"(3.81e+03,5.83e+03]",FALSE,521
528,28,X6,0,1,0,1,tv,12,6,0.5,685,6554,8.787830829,0,1011111,0,0,0.5,6,0,0,6,0,1,-1,chose undesirable,desirable fac.,"(5.83e+03,9.1e+03]",FALSE,504
529,29,X6,1,0,1,0,tv,19,13,0.684210526,648,10188,9.228965836,0,1.11E+18,0,0.184210526,0.684210526,6,7,7,13,0,-1,1,chose desirable,undesirable fac.,"(9.1e+03,1.77e+05]",FALSE,288
530,30,X6,1,0,0,1,ph,18,9,0.5,881,9771,9.187174094,10,1.00E+17,1,0,0.5,9,0,0,9,1,1,1,chose desirable,desirable fac.,"(9.1e+03,1.77e+05]",FALSE,421
531,31,X6,0,1,1,0,ph,17,5,0.294117647,787,9089,9.11482017,0,1.00E+16,1,-0.205882353,0.705882353,12,-7,7,12,1,-1,-1,chose undesirable,undesirable fac.,"(5.83e+03,9.1e+03]",FALSE,289
532,32,X6,1,1,0,0,ph,6,5,0.833333333,150,2881,7.965892735,0,11111,0,0.333333333,0.833333333,1,4,4,5,0,-1,1,chose desirable,undesirable fac.,"(2.26e+03,3.81e+03]",FALSE,131
533,33,X6,0,1,1,0,ph,22,10,0.454545455,625,11886,9.383116516,0,1.10E+21,1,-0.045454545,0.545454545,12,-2,2,12,1,-1,-1,chose undesirable,undesirable fac.,"(9.1e+03,1.77e+05]",FALSE,336
534,34,X6,1,1,1,1,tv,7,6,0.857142857,1044,3449,8.145839613,0,1111110,1,0.357142857,0.857142857,1,5,5,6,1,1,1,chose desirable,desirable fac.,"(2.26e+03,3.81e+03]",FALSE,149
537,37,X6,0,0,0,0,tv,16,6,0.375,1222,8548,9.053452616,0,1.10E+13,1,-0.125,0.625,10,-4,4,10,1,-1,-1,chose undesirable,undesirable fac.,"(5.83e+03,9.1e+03]",FALSE,298
538,38,X6,1,1,1,1,tv,13,7,0.538461538,2647,7129,8.871926251,0,1.11E+11,1,0.038461538,0.538461538,6,1,1,7,1,1,1,chose desirable,desirable fac.,"(5.83e+03,9.1e+03]",FALSE,529
539,39,X6,1,0,1,0,tv,31,15,0.483870968,52962,16689,9.722505099,0,1.11E+25,0,-0.016129032,0.483870968,16,-1,-1,15,0,-1,1,chose desirable,undesirable fac.,"(9.1e+03,1.77e+05]",FALSE,189
540,40,X6,1,1,0,0,ph,16,9,0.5625,33,8751,9.076923259,0,1.11E+13,0,0.0625,0.5625,7,2,2,9,0,-1,1,chose desirable,undesirable fac.,"(5.83e+03,9.1e+03]",FALSE,501
541,41,X6,0,1,1,0,ph,33,12,0.363636364,724,18001,9.798182591,2,1.00E+31,1,-0.136363636,0.636363636,21,-9,9,21,1,-1,-1,chose undesirable,undesirable fac.,"(9.1e+03,1.77e+05]",FALSE,401
542,42,X6,1,0,0,1,ph,52,32,0.615384615,1186,28499,10.25762428,0,1.11E+50,1,0.115384615,0.615384615,20,12,12,32,1,1,1,chose desirable,desirable fac.,"(9.1e+03,1.77e+05]",FALSE,449
543,43,X6,1,0,0,1,ph,14,8,0.571428571,671,7336,8.900549014,0,11110011011,1,0.071428571,0.571428571,6,2,2,8,1,1,1,chose desirable,desirable fac.,"(5.83e+03,9.1e+03]",FALSE,186
544,44,X6,0,0,0,0,tv,3,1,0.333333333,856,1229,7.11395611,0,1,1,-0.166666667,0.666666667,2,-1,1,2,1,-1,-1,chose undesirable,undesirable fac.,"[0,2.26e+03]",FALSE,129
545,45,X6,1,1,1,1,tv,27,21,0.777777778,2199,14600,9.588776808,0,1.11E+26,1,0.277777778,0.777777778,6,15,15,21,1,1,1,chose desirable,desirable fac.,"(9.1e+03,1.77e+05]",FALSE,300
546,46,X6,1,1,1,1,tv,24,14,0.583333333,385,12742,9.452658903,0,1.01E+22,1,0.083333333,0.583333333,10,4,4,14,1,1,1,chose desirable,desirable fac.,"(9.1e+03,1.77e+05]",FALSE,92
547,47,X6,0,1,1,0,ph,8,3,0.375,893,4372,8.382975849,0,1110000,1,-0.125,0.625,5,-2,2,5,1,-1,-1,chose undesirable,undesirable fac.,"(3.81e+03,5.83e+03]",FALSE,522
548,48,X6,1,0,1,0,tv,11,7,0.636363636,665,5744,8.655911111,5,10010111110,0,0.136363636,0.636363636,4,3,3,7,0,-1,1,chose desirable,undesirable fac.,"(3.81e+03,5.83e+03]",FALSE,244
549,49,X6,0,1,1,0,ph,23,11,0.47826087,1415,12560,9.43827244,0,1.10E+22,1,-0.02173913,0.52173913,12,-1,1,12,1,-1,-1,chose undesirable,undesirable fac.,"(9.1e+03,1.77e+05]",FALSE,460
550,50,X6,0,1,1,0,ph,15,7,0.466666667,5,8120,9.002085433,0,1.01E+13,1,-0.033333333,0.533333333,8,-1,1,8,1,-1,-1,chose undesirable,undesirable fac.,"(5.83e+03,9.1e+03]",FALSE,420
551,51,X6,0,0,0,0,tv,37,12,0.324324324,748,20215,9.914180182,2,1.01E+35,1,-0.175675676,0.675675676,25,-13,13,25,1,-1,-1,chose undesirable,undesirable fac.,"(9.1e+03,1.77e+05]",FALSE,415
553,53,X6,1,1,1,1,tv,6,3,0.5,517,2871,7.96241568,0,111000,1,0,0.5,3,0,0,3,1,1,1,chose desirable,desirable fac.,"(2.26e+03,3.81e+03]",FALSE,121
554,54,X6,0,1,1,0,ph,7,2,0.285714286,301,3383,8.126518169,0,1001,1,-0.214285714,0.714285714,5,-3,3,5,1,-1,-1,chose undesirable,undesirable fac.,"(2.26e+03,3.81e+03]",FALSE,83
555,55,X6,1,1,1,1,tv,34,21,0.617647059,673,18312,9.815311862,0,1.01E+33,1,0.117647059,0.617647059,13,8,8,21,1,1,1,chose desirable,desirable fac.,"(9.1e+03,1.77e+05]",FALSE,162
556,56,X6,0,0,0,0,tv,62,28,0.451612903,992,33673,10.42445161,0,1.10E+60,1,-0.048387097,0.548387097,34,-6,6,34,1,-1,-1,chose undesirable,undesirable fac.,"(9.1e+03,1.77e+05]",FALSE,123
558,58,X6,0,0,0,0,tv,34,17,0.5,1305,18449,9.822765447,1,1.10E+33,1,0,0.5,17,0,0,17,1,-1,-1,chose undesirable,undesirable fac.,"(9.1e+03,1.77e+05]",FALSE,299
559,59,X6,1,0,0,1,ph,14,10,0.714285714,2576,7432,8.91355028,0,1.01E+13,1,0.214285714,0.714285714,4,6,6,10,1,1,1,chose desirable,desirable fac.,"(5.83e+03,9.1e+03]",FALSE,282
560,60,X6,1,1,1,1,tv,4,3,0.75,59,2185,7.689371108,1,1110,1,0.25,0.75,1,2,2,3,1,1,1,chose desirable,desirable fac.,"[0,2.26e+03]",FALSE,535
561,61,X6,0,0,0,0,tv,10,4,0.4,416,5358,8.58634605,0,1001100100,1,-0.1,0.6,6,-2,2,6,1,-1,-1,chose undesirable,undesirable fac.,"(3.81e+03,5.83e+03]",FALSE,408
562,62,X6,1,1,1,1,tv,11,8,0.727272727,767,5928,8.687442167,0,11110101110,1,0.227272727,0.727272727,3,5,5,8,1,1,1,chose desirable,desirable fac.,"(5.83e+03,9.1e+03]",FALSE,428
563,63,X6,1,1,1,1,tv,13,10,0.769230769,105,6858,8.833171133,0,1.01E+12,1,0.269230769,0.769230769,3,7,7,10,1,1,1,chose desirable,desirable fac.,"(5.83e+03,9.1e+03]",FALSE,258
564,64,X6,0,0,0,0,tv,11,5,0.454545455,191,6029,8.704336438,0,10011110000,1,-0.045454545,0.545454545,6,-1,1,6,1,-1,-1,chose undesirable,undesirable fac.,"(5.83e+03,9.1e+03]",FALSE,529
565,65,X6,1,0,1,0,tv,6,4,0.666666667,190,2905,7.974188669,0,1111,0,0.166666667,0.666666667,2,2,2,4,0,-1,1,chose desirable,undesirable fac.,"(2.26e+03,3.81e+03]",FALSE,155
566,66,X6,1,1,0,0,ph,7,3,0.428571429,2288,3820,8.248005702,0,11010,0,-0.071428571,0.428571429,4,-1,-1,3,0,-1,1,chose desirable,undesirable fac.,"(3.81e+03,5.83e+03]",FALSE,520
567,67,X6,0,0,1,1,ph,6,1,0.166666667,819,2922,7.980023592,0,100000,0,-0.333333333,0.833333333,5,-4,4,5,0,1,-1,chose undesirable,desirable fac.,"(2.26e+03,3.81e+03]",FALSE,172
568,68,X6,0,1,0,1,tv,4,2,0.5,471,1944,7.572502985,0,11,0,0,0.5,2,0,0,2,0,1,-1,chose undesirable,desirable fac.,"[0,2.26e+03]",FALSE,294
569,69,X6,1,1,1,1,tv,10,8,0.8,1136,5247,8.565411764,0,1110111110,1,0.3,0.8,2,6,6,8,1,1,1,chose desirable,desirable fac.,"(3.81e+03,5.83e+03]",FALSE,297
570,70,X6,0,1,1,0,ph,18,8,0.444444444,432,9703,9.180190395,0,1.01E+17,1,-0.055555556,0.555555556,10,-2,2,10,1,-1,-1,chose undesirable,undesirable fac.,"(9.1e+03,1.77e+05]",FALSE,353
571,71,X6,1,0,0,1,ph,9,6,0.666666667,2218,4850,8.486733984,1,101110011,1,0.166666667,0.666666667,3,3,3,6,1,1,1,chose desirable,desirable fac.,"(3.81e+03,5.83e+03]",FALSE,450
572,72,X6,1,0,0,1,ph,18,10,0.555555556,719,9712,9.181117513,0,1.10E+17,1,0.055555556,0.555555556,8,2,2,10,1,1,1,chose desirable,desirable fac.,"(9.1e+03,1.77e+05]",FALSE,362
574,74,X6,0,0,1,1,ph,11,6,0.545454545,351,5808,8.666991557,0,11111000001,0,0.045454545,0.454545455,5,1,-1,5,0,1,-1,chose undesirable,desirable fac.,"(3.81e+03,5.83e+03]",FALSE,308
575,75,X6,0,1,1,0,ph,9,1,0.111111111,614,4613,8.436633684,0,1,1,-0.388888889,0.888888889,8,-7,7,8,1,-1,-1,chose undesirable,undesirable fac.,"(3.81e+03,5.83e+03]",FALSE,213
576,76,X6,0,0,1,1,ph,20,9,0.45,807,10529,9.261888634,0,1.00E+18,0,-0.05,0.55,11,-2,2,11,0,1,-1,chose undesirable,desirable fac.,"(9.1e+03,1.77e+05]",FALSE,79
578,78,X6,0,1,1,0,ph,4,0,0,484,1827,7.510430556,0,0,1,-0.5,1,4,-4,4,4,1,-1,-1,chose undesirable,undesirable fac.,"[0,2.26e+03]",FALSE,177
579,79,X6,0,1,1,0,ph,2,1,0.5,603,619,6.428105273,0,1,1,0,0.5,1,0,0,1,1,-1,-1,chose undesirable,undesirable fac.,"[0,2.26e+03]",FALSE,69
580,80,X6,1,1,1,1,tv,14,8,0.571428571,1175,7232,8.886270902,0,1.00E+11,1,0.071428571,0.571428571,6,2,2,8,1,1,1,chose desirable,desirable fac.,"(5.83e+03,9.1e+03]",FALSE,82
581,81,X6,1,0,1,0,tv,45,19,0.422222222,126,24400,10.10233841,0,1.10E+44,0,-0.077777778,0.422222222,26,-7,-7,19,0,-1,1,chose desirable,undesirable fac.,"(9.1e+03,1.77e+05]",FALSE,200
582,82,X6,1,0,0,1,ph,15,9,0.6,2449,7937,8.979290649,0,1.10E+12,1,0.1,0.6,6,3,3,9,1,1,1,chose desirable,desirable fac.,"(5.83e+03,9.1e+03]",FALSE,237
583,83,X6,0,1,1,0,ph,9,1,0.111111111,4472,4620,8.438149984,0,1,1,-0.388888889,0.888888889,8,-7,7,8,1,-1,-1,chose undesirable,undesirable fac.,"(3.81e+03,5.83e+03]",FALSE,220
584,84,X6,0,0,1,1,ph,13,4,0.307692308,1278,6687,8.807920622,0,1.00E+12,0,-0.192307692,0.692307692,9,-5,5,9,0,1,-1,chose undesirable,desirable fac.,"(5.83e+03,9.1e+03]",FALSE,87
585,85,X6,0,0,0,0,tv,15,7,0.466666667,1489,7971,8.983565234,4,1.11E+12,1,-0.033333333,0.533333333,8,-1,1,8,1,-1,-1,chose undesirable,undesirable fac.,"(5.83e+03,9.1e+03]",FALSE,271
586,86,X6,0,1,0,1,tv,10,2,0.2,737,5013,8.519789817,3,100000001,0,-0.3,0.8,8,-6,6,8,0,1,-1,chose undesirable,desirable fac.,"(3.81e+03,5.83e+03]",FALSE,63
588,88,X6,1,0,0,1,ph,7,5,0.714285714,1542,3748,8.228977643,5,1001111,1,0.214285714,0.714285714,2,3,3,5,1,1,1,chose desirable,desirable fac.,"(2.26e+03,3.81e+03]",FALSE,448
589,89,X6,0,0,1,1,ph,32,16,0.5,619,17171,9.750977193,0,1.00E+31,0,0,0.5,16,0,0,16,0,1,-1,chose undesirable,desirable fac.,"(9.1e+03,1.77e+05]",FALSE,121
590,90,X6,1,1,0,0,ph,5,4,0.8,1286,2352,7.763021309,0,10111,0,0.3,0.8,1,3,3,4,0,-1,1,chose desirable,undesirable fac.,"(2.26e+03,3.81e+03]",FALSE,152
592,92,X6,1,1,1,1,tv,14,11,0.785714286,743,7384,8.907070776,0,1.01E+12,1,0.285714286,0.785714286,3,8,8,11,1,1,1,chose desirable,desirable fac.,"(5.83e+03,9.1e+03]",FALSE,234
593,93,X6,1,1,0,0,ph,29,15,0.517241379,4427,15449,9.645299555,0,1.11E+28,0,0.017241379,0.517241379,14,1,1,15,0,-1,1,chose desirable,undesirable fac.,"(9.1e+03,1.77e+05]",FALSE,49
594,94,X6,1,1,1,1,tv,18,10,0.555555556,1059,9731,9.183071945,4,1.01E+17,1,0.055555556,0.555555556,8,2,2,10,1,1,1,chose desirable,desirable fac.,"(9.1e+03,1.77e+05]",FALSE,381
595,95,X6,0,1,1,0,ph,11,2,0.181818182,641,5600,8.630521877,0,11000000,1,-0.318181818,0.818181818,9,-7,7,9,1,-1,-1,chose undesirable,undesirable fac.,"(3.81e+03,5.83e+03]",FALSE,100
596,96,X6,1,1,1,1,tv,9,8,0.888888889,11294,4622,8.438582791,0,111110111,1,0.388888889,0.888888889,1,7,7,8,1,1,1,chose desirable,desirable fac.,"(3.81e+03,5.83e+03]",FALSE,222
597,97,X6,0,1,1,0,ph,16,5,0.3125,287,8312,9.025455533,0,1.00E+11,1,-0.1875,0.6875,11,-6,6,11,1,-1,-1,chose undesirable,undesirable fac.,"(5.83e+03,9.1e+03]",FALSE,62
598,98,X6,1,0,1,0,tv,9,6,0.666666667,1189,4711,8.457655479,0,10111011,0,0.166666667,0.666666667,3,3,3,6,0,-1,1,chose desirable,undesirable fac.,"(3.81e+03,5.83e+03]",FALSE,311
599,99,X6,0,0,1,1,ph,22,8,0.363636364,91,12014,9.393827915,5,1.00E+20,0,-0.136363636,0.636363636,14,-6,6,14,0,1,-1,chose undesirable,desirable fac.,"(9.1e+03,1.77e+05]",FALSE,464
600,100,X6,1,0,0,1,ph,10,6,0.6,691,4963,8.509765676,1,1110001101,1,0.1,0.6,4,2,2,6,1,1,1,chose desirable,desirable fac.,"(3.81e+03,5.83e+03]",FALSE,13
602,2,X7,1,0,0,1,ph,5,3,0.6,835,2648,7.881559917,0,11010,1,0.1,0.6,2,1,1,3,1,1,1,chose desirable,desirable fac.,"(2.26e+03,3.81e+03]",FALSE,448
603,3,X7,0,0,1,1,ph,13,7,0.538461538,768,6758,8.818482267,0,1101110101,0,0.038461538,0.461538462,6,1,-1,6,0,1,-1,chose undesirable,desirable fac.,"(5.83e+03,9.1e+03]",FALSE,158
604,4,X7,1,0,0,1,ph,6,5,0.833333333,605,2961,7.993282328,0,11111,1,0.333333333,0.833333333,1,4,4,5,1,1,1,chose desirable,desirable fac.,"(2.26e+03,3.81e+03]",FALSE,211
606,6,X7,1,0,0,1,ph,9,6,0.666666667,797,4838,8.484256691,0,101010111,1,0.166666667,0.666666667,3,3,3,6,1,1,1,chose desirable,desirable fac.,"(3.81e+03,5.83e+03]",FALSE,438
607,7,X7,1,0,1,0,tv,4,2,0.5,2979,1969,7.585281079,0,1010,0,0,0.5,2,0,0,2,0,-1,1,chose desirable,undesirable fac.,"[0,2.26e+03]",FALSE,319
608,8,X7,0,0,0,0,tv,5,1,0.2,648,2568,7.850882665,0,1,1,-0.3,0.8,4,-3,3,4,1,-1,-1,chose undesirable,undesirable fac.,"(2.26e+03,3.81e+03]",FALSE,368
609,9,X7,1,0,0,1,ph,10,8,0.8,858,5389,8.592115118,1,1111110110,1,0.3,0.8,2,6,6,8,1,1,1,chose desirable,desirable fac.,"(3.81e+03,5.83e+03]",FALSE,439
611,11,X7,1,0,0,1,ph,4,3,0.75,565,1696,7.436027816,0,1110,1,0.25,0.75,1,2,2,3,1,1,1,chose desirable,desirable fac.,"[0,2.26e+03]",FALSE,46
612,12,X7,1,1,1,1,tv,18,11,0.611111111,584,9522,9.16136019,0,1.10E+17,1,0.111111111,0.611111111,7,4,4,11,1,1,1,chose desirable,desirable fac.,"(9.1e+03,1.77e+05]",FALSE,172
614,14,X7,0,1,1,0,ph,12,5,0.416666667,8599,6167,8.726967775,0,10011001010,1,-0.083333333,0.583333333,7,-2,2,7,1,-1,-1,chose undesirable,undesirable fac.,"(5.83e+03,9.1e+03]",FALSE,117
615,15,X7,0,0,0,0,tv,29,8,0.275862069,7124,15433,9.644263353,0,1.01E+24,1,-0.224137931,0.724137931,21,-13,13,21,1,-1,-1,chose undesirable,undesirable fac.,"(9.1e+03,1.77e+05]",FALSE,33
616,16,X7,1,1,1,1,tv,13,8,0.615384615,615,6936,8.844480518,0,1.11E+12,1,0.115384615,0.615384615,5,3,3,8,1,1,1,chose desirable,desirable fac.,"(5.83e+03,9.1e+03]",FALSE,336
617,17,X7,1,1,0,0,ph,6,5,0.833333333,803,3118,8.04494705,0,111110,0,0.333333333,0.833333333,1,4,4,5,0,-1,1,chose desirable,undesirable fac.,"(2.26e+03,3.81e+03]",FALSE,368
618,18,X7,1,0,1,0,tv,11,7,0.636363636,1755,5814,8.668024081,0,1010111101,0,0.136363636,0.636363636,4,3,3,7,0,-1,1,chose desirable,undesirable fac.,"(3.81e+03,5.83e+03]",FALSE,314
619,19,X7,0,1,1,0,ph,7,2,0.285714286,598,3576,8.182000136,0,1001,1,-0.214285714,0.714285714,5,-3,3,5,1,-1,-1,chose undesirable,undesirable fac.,"(2.26e+03,3.81e+03]",FALSE,276
620,20,X7,1,0,0,1,ph,4,4,1,605,2140,7.668561108,0,1111,1,0.5,1,0,4,4,4,1,1,1,chose desirable,desirable fac.,"[0,2.26e+03]",FALSE,490
621,21,X7,1,0,1,0,tv,17,9,0.529411765,1531,9180,9.124782484,3,1.11E+13,0,0.029411765,0.529411765,8,1,1,9,0,-1,1,chose desirable,undesirable fac.,"(9.1e+03,1.77e+05]",FALSE,380
622,22,X7,0,1,1,0,ph,9,3,0.333333333,2126,4816,8.479698987,0,110001000,1,-0.166666667,0.666666667,6,-3,3,6,1,-1,-1,chose undesirable,undesirable fac.,"(3.81e+03,5.83e+03]",FALSE,416
623,23,X7,1,0,0,1,ph,27,20,0.740740741,682,14802,9.602517586,0,1.10E+26,1,0.240740741,0.740740741,7,13,13,20,1,1,1,chose desirable,desirable fac.,"(9.1e+03,1.77e+05]",FALSE,502
624,24,X7,0,0,0,0,tv,43,18,0.418604651,3080,23179,10.05100198,21,1.01E+40,1,-0.081395349,0.581395349,25,-7,7,25,1,-1,-1,chose undesirable,undesirable fac.,"(9.1e+03,1.77e+05]",FALSE,79
625,25,X7,0,0,0,0,tv,5,1,0.2,409,2678,7.892825526,0,10000,1,-0.3,0.8,4,-3,3,4,1,-1,-1,chose undesirable,undesirable fac.,"(2.26e+03,3.81e+03]",FALSE,478
626,26,X7,1,1,1,1,tv,17,10,0.588235294,2267,9178,9.124564595,4,1.11E+16,1,0.088235294,0.588235294,7,3,3,10,1,1,1,chose desirable,desirable fac.,"(9.1e+03,1.77e+05]",FALSE,378
627,27,X7,1,0,0,1,ph,9,6,0.666666667,484,4895,8.495969555,0,110111010,1,0.166666667,0.666666667,3,3,3,6,1,1,1,chose desirable,desirable fac.,"(3.81e+03,5.83e+03]",FALSE,495
628,28,X7,1,1,1,1,tv,15,8,0.533333333,833,7713,8.950662496,0,1.10E+13,1,0.033333333,0.533333333,7,1,1,8,1,1,1,chose desirable,desirable fac.,"(5.83e+03,9.1e+03]",FALSE,13
629,29,X7,0,0,0,0,tv,16,4,0.25,581,8456,9.042631528,0,1.10E+13,1,-0.25,0.75,12,-8,8,12,1,-1,-1,chose undesirable,undesirable fac.,"(5.83e+03,9.1e+03]",FALSE,206
630,30,X7,0,1,1,0,ph,8,1,0.125,1221,3903,8.269500767,4,1000000,1,-0.375,0.875,7,-6,6,7,1,-1,-1,chose undesirable,undesirable fac.,"(3.81e+03,5.83e+03]",FALSE,53
631,31,X7,0,1,1,0,ph,22,5,0.227272727,534,11652,9.363233118,0,1.10E+20,1,-0.272727273,0.772727273,17,-12,12,17,1,-1,-1,chose undesirable,undesirable fac.,"(9.1e+03,1.77e+05]",FALSE,102
632,32,X7,1,0,0,1,ph,4,4,1,295,2064,7.632401127,0,1111,1,0.5,1,0,4,4,4,1,1,1,chose desirable,desirable fac.,"[0,2.26e+03]",FALSE,414
633,33,X7,0,1,1,0,ph,21,6,0.285714286,1259,11053,9.310457163,0,1.01E+16,1,-0.214285714,0.714285714,15,-9,9,15,1,-1,-1,chose undesirable,undesirable fac.,"(9.1e+03,1.77e+05]",FALSE,53
634,34,X7,0,1,0,1,tv,17,9,0.529411765,1149,8888,9.092457331,1,1.11E+16,0,0.029411765,0.470588235,8,1,-1,8,0,1,-1,chose undesirable,desirable fac.,"(5.83e+03,9.1e+03]",FALSE,88
637,37,X7,0,0,0,0,tv,5,2,0.4,541,2329,7.75319427,0,10010,1,-0.1,0.6,3,-1,1,3,1,-1,-1,chose undesirable,undesirable fac.,"(2.26e+03,3.81e+03]",FALSE,129
638,38,X7,0,0,0,0,tv,26,10,0.384615385,635,13977,9.5451684,0,1.10E+24,1,-0.115384615,0.615384615,16,-6,6,16,1,-1,-1,chose undesirable,undesirable fac.,"(9.1e+03,1.77e+05]",FALSE,227
639,39,X7,0,1,0,1,tv,28,12,0.428571429,936,14975,9.614137423,0,1.00E+26,0,-0.071428571,0.571428571,16,-4,4,16,0,1,-1,chose undesirable,desirable fac.,"(9.1e+03,1.77e+05]",FALSE,125
640,40,X7,1,1,0,0,ph,18,11,0.611111111,386,9369,9.145161646,0,1.11E+12,0,0.111111111,0.611111111,7,4,4,11,0,-1,1,chose desirable,undesirable fac.,"(9.1e+03,1.77e+05]",FALSE,19
641,41,X7,0,0,1,1,ph,38,20,0.526315789,1043,20706,9.938178792,1,1.10E+37,0,0.026315789,0.473684211,18,2,-2,18,0,1,-1,chose undesirable,desirable fac.,"(9.1e+03,1.77e+05]",FALSE,356
642,42,X7,1,0,0,1,ph,34,19,0.558823529,938,18659,9.834083882,0,1.11E+30,1,0.058823529,0.558823529,15,4,4,19,1,1,1,chose desirable,desirable fac.,"(9.1e+03,1.77e+05]",FALSE,509
643,43,X7,0,1,1,0,ph,4,0,0,508,1951,7.576097341,0,0,1,-0.5,1,4,-4,4,4,1,-1,-1,chose undesirable,undesirable fac.,"[0,2.26e+03]",FALSE,301
644,44,X7,0,0,0,0,tv,3,1,0.333333333,417,1402,7.245655068,0,1,1,-0.166666667,0.666666667,2,-1,1,2,1,-1,-1,chose undesirable,undesirable fac.,"[0,2.26e+03]",FALSE,302
645,45,X7,1,1,1,1,tv,69,39,0.565217391,815,37751,10.53876724,0,1.11E+67,1,0.065217391,0.565217391,30,9,9,39,1,1,1,chose desirable,desirable fac.,"(9.1e+03,1.77e+05]",FALSE,351
646,46,X7,1,1,1,1,tv,14,8,0.571428571,373,7178,8.878776072,0,1.00E+13,1,0.071428571,0.571428571,6,2,2,8,1,1,1,chose desirable,desirable fac.,"(5.83e+03,9.1e+03]",FALSE,28
647,47,X7,1,0,0,1,ph,19,13,0.684210526,469,10420,9.251482315,0,1.10E+17,1,0.184210526,0.684210526,6,7,7,13,1,1,1,chose desirable,desirable fac.,"(9.1e+03,1.77e+05]",FALSE,520
648,48,X7,0,0,0,0,tv,35,15,0.428571429,952,19032,9.853877052,17,1.00E+33,1,-0.071428571,0.571428571,20,-5,5,20,1,-1,-1,chose undesirable,undesirable fac.,"(9.1e+03,1.77e+05]",FALSE,332
649,49,X7,1,0,0,1,ph,21,15,0.714285714,1726,11416,9.342771159,0,1.01E+20,1,0.214285714,0.714285714,6,9,9,15,1,1,1,chose desirable,desirable fac.,"(9.1e+03,1.77e+05]",FALSE,416
650,50,X7,1,0,0,1,ph,11,8,0.727272727,1304,5578,8.626585568,0,10110111110,1,0.227272727,0.727272727,3,5,5,8,1,1,1,chose desirable,desirable fac.,"(3.81e+03,5.83e+03]",FALSE,78
651,51,X7,1,1,1,1,tv,69,38,0.550724638,1347,37615,10.53515819,7,1.11E+68,1,0.050724638,0.550724638,31,7,7,38,1,1,1,chose desirable,desirable fac.,"(9.1e+03,1.77e+05]",FALSE,215
653,53,X7,0,0,0,0,tv,8,0,0,333,3960,8.283999304,0,0,1,-0.5,1,8,-8,8,8,1,-1,-1,chose undesirable,undesirable fac.,"(3.81e+03,5.83e+03]",FALSE,110
654,54,X7,1,1,0,0,ph,7,5,0.714285714,366,3401,8.131824785,0,111110,0,0.214285714,0.714285714,2,3,3,5,0,-1,1,chose desirable,undesirable fac.,"(2.26e+03,3.81e+03]",FALSE,101
655,55,X7,0,0,0,0,tv,16,6,0.375,4349,8635,9.063578991,0,1.10E+15,1,-0.125,0.625,10,-4,4,10,1,-1,-1,chose undesirable,undesirable fac.,"(5.83e+03,9.1e+03]",FALSE,385
656,56,X7,0,1,0,1,tv,20,7,0.35,1669,10694,9.277438116,0,1.00E+17,0,-0.15,0.65,13,-6,6,13,0,1,-1,chose undesirable,desirable fac.,"(9.1e+03,1.77e+05]",FALSE,244
657,57,X7,1,1,1,1,tv,17,7,0.411764706,5154,9189,9.125762396,2,1.00E+16,1,-0.088235294,0.411764706,10,-3,-3,7,1,1,1,chose desirable,desirable fac.,"(9.1e+03,1.77e+05]",FALSE,389
658,58,X7,0,0,0,0,tv,12,6,0.5,894,6191,8.730851904,0,11000111010,1,0,0.5,6,0,0,6,1,-1,-1,chose undesirable,undesirable fac.,"(5.83e+03,9.1e+03]",FALSE,141
659,59,X7,0,1,1,0,ph,8,1,0.125,2088,4104,8.319717387,0,1,1,-0.375,0.875,7,-6,6,7,1,-1,-1,chose undesirable,undesirable fac.,"(3.81e+03,5.83e+03]",FALSE,254
660,60,X7,0,1,0,1,tv,5,1,0.2,1640,2648,7.881559917,1,10000,0,-0.3,0.8,4,-3,3,4,0,1,-1,chose undesirable,desirable fac.,"(2.26e+03,3.81e+03]",FALSE,448
661,61,X7,0,0,0,0,tv,5,1,0.2,399,2434,7.797291274,0,1,1,-0.3,0.8,4,-3,3,4,1,-1,-1,chose undesirable,undesirable fac.,"(2.26e+03,3.81e+03]",FALSE,234
