,ID,trial,chooseDes,whichWorld,chooseTV,desWorld,whatIsDes,seqLength,desCount,desProp,RT.lev,RT.raw,RT.log,aniFlagCount,outcomeDesSeq,correct,desPropC,evidForChoice,undesCount,desDiff,diffForChoice,itemsForChoiceCount,chooseDes.m,desWorldC,chooseDesC,chooseDesF,desWorldF,RTq5,timingFlag,timingRelative
1,1,X1,1,0,0,1,ph,4,2,0.5,1135,2032,7.616775809,0,110,1,0,0.5,2,0,0,2,1,1,1,chose desirable,desirable fac.,"[1,2.08e+03]",FALSE,382
2,2,X1,1,0,0,1,ph,8,6,0.75,3617,4318,8.370547611,0,10011111,1,0.25,0.75,2,4,4,6,1,1,1,chose desirable,desirable fac.,"(3.23e+03,4.69e+03]",FALSE,468
3,3,X1,1,1,1,1,tv,8,7,0.875,1774,4227,8.349247801,0,11011111,1,0.375,0.875,1,6,6,7,1,1,1,chose desirable,desirable fac.,"(3.23e+03,4.69e+03]",FALSE,377
4,4,X1,0,0,0,0,tv,9,2,0.222222222,2303,4595,8.432724035,0,110000000,1,-0.277777778,0.777777778,7,-5,5,7,1,-1,-1,chose undesirable,undesirable fac.,"(3.23e+03,4.69e+03]",FALSE,195
8,8,X1,0,0,0,0,tv,9,1,0.111111111,1042,4602,8.434246271,0,1000,1,-0.388888889,0.888888889,8,-7,7,8,1,-1,-1,chose undesirable,undesirable fac.,"(3.23e+03,4.69e+03]",FALSE,202
9,9,X1,1,1,1,1,tv,5,3,0.6,5081,2714,7.90617884,2,11010,1,0.1,0.6,2,1,1,3,1,1,1,chose desirable,desirable fac.,"(2.08e+03,3.23e+03]",FALSE,514
11,11,X1,1,0,1,0,tv,8,4,0.5,2877,4397,8.388677769,0,101011,0,0,0.5,4,0,0,4,0,-1,1,chose desirable,undesirable fac.,"(3.23e+03,4.69e+03]",FALSE,547
12,12,X1,0,1,1,0,ph,6,0,0,885,2976,7.998335396,0,0,1,-0.5,1,6,-6,6,6,1,-1,-1,chose undesirable,undesirable fac.,"(2.08e+03,3.23e+03]",FALSE,226
13,13,X1,0,1,0,1,tv,8,4,0.5,3527,4212,8.345692873,0,10011001,0,0,0.5,4,0,0,4,0,1,-1,chose undesirable,desirable fac.,"(3.23e+03,4.69e+03]",FALSE,362
15,15,X1,0,0,0,0,tv,5,2,0.4,1592,2592,7.860185057,0,11000,1,-0.1,0.6,3,-1,1,3,1,-1,-1,chose undesirable,undesirable fac.,"(2.08e+03,3.23e+03]",FALSE,392
16,16,X1,1,0,1,0,tv,8,5,0.625,446,4168,8.335191583,0,1101110,0,0.125,0.625,3,2,2,5,0,-1,1,chose desirable,undesirable fac.,"(3.23e+03,4.69e+03]",FALSE,318
17,17,X1,0,1,1,0,ph,8,3,0.375,3329,3971,8.286773231,1,10010010,1,-0.125,0.625,5,-2,2,5,1,-1,-1,chose undesirable,undesirable fac.,"(3.23e+03,4.69e+03]",FALSE,121
18,18,X1,0,1,1,0,ph,5,3,0.6,1574,2376,7.77317368,0,10011,1,0.1,0.4,2,1,-1,2,1,-1,-1,chose undesirable,undesirable fac.,"(2.08e+03,3.23e+03]",FALSE,176
19,19,X1,0,0,0,0,tv,20,5,0.25,16143,10648,9.27312736,0,1.00E+19,1,-0.25,0.75,15,-10,10,15,1,-1,-1,chose undesirable,undesirable fac.,"(7.41e+03,2.03e+05]",FALSE,198
20,20,X1,1,0,0,1,ph,4,2,0.5,1207,1959,7.580189418,0,110,1,0,0.5,2,0,0,2,1,1,1,chose desirable,desirable fac.,"[1,2.08e+03]",FALSE,309
21,21,X1,1,1,1,1,tv,6,4,0.666666667,1680,3231,8.080546966,0,1111,1,0.166666667,0.666666667,2,2,2,4,1,1,1,chose desirable,desirable fac.,"(3.23e+03,4.69e+03]",FALSE,481
22,22,X1,1,0,0,1,ph,12,7,0.583333333,2389,6280,8.745125259,6,1.10E+11,1,0.083333333,0.583333333,5,2,2,7,1,1,1,chose desirable,desirable fac.,"(4.69e+03,7.41e+03]",FALSE,230
23,23,X1,0,1,1,0,ph,6,0,0,2071,3233,8.081165778,0,0,1,-0.5,1,6,-6,6,6,1,-1,-1,chose undesirable,undesirable fac.,"(3.23e+03,4.69e+03]",FALSE,483
24,24,X1,1,1,0,0,ph,6,6,1,1758,2880,7.965545573,0,111111,0,0.5,1,0,6,6,6,0,-1,1,chose desirable,undesirable fac.,"(2.08e+03,3.23e+03]",FALSE,130
25,25,X1,1,0,1,0,tv,8,4,0.5,735,4193,8.341171747,0,110110,0,0,0.5,4,0,0,4,0,-1,1,chose desirable,undesirable fac.,"(3.23e+03,4.69e+03]",FALSE,343
26,26,X1,0,1,1,0,ph,9,1,0.111111111,496,4776,8.471358655,0,100000,1,-0.388888889,0.888888889,8,-7,7,8,1,-1,-1,chose undesirable,undesirable fac.,"(4.69e+03,7.41e+03]",FALSE,376
27,27,X1,1,1,1,1,tv,9,7,0.777777778,1183,4559,8.42485858,0,101111011,1,0.277777778,0.777777778,2,5,5,7,1,1,1,chose desirable,desirable fac.,"(3.23e+03,4.69e+03]",FALSE,159
28,28,X1,1,1,1,1,tv,4,3,0.75,4749,2096,7.647786045,0,1110,1,0.25,0.75,1,2,2,3,1,1,1,chose desirable,desirable fac.,"(2.08e+03,3.23e+03]",FALSE,446
29,29,X1,1,0,0,1,ph,14,9,0.642857143,4206,7391,8.908018323,0,1.10E+13,1,0.142857143,0.642857143,5,4,4,9,1,1,1,chose desirable,desirable fac.,"(4.69e+03,7.41e+03]",FALSE,241
30,30,X1,0,0,1,1,ph,9,2,0.222222222,2460,4656,8.445911989,0,1001000,0,-0.277777778,0.777777778,7,-5,5,7,0,1,-1,chose undesirable,desirable fac.,"(3.23e+03,4.69e+03]",FALSE,256
31,31,X1,0,1,0,1,tv,49,22,0.448979592,3005,26842,10.1977231,0,1.10E+48,0,-0.051020408,0.551020408,27,-5,5,27,0,1,-1,chose undesirable,desirable fac.,"(7.41e+03,2.03e+05]",FALSE,442
32,32,X1,1,0,0,1,ph,6,5,0.833333333,3872,3175,8.063062911,0,11111,1,0.333333333,0.833333333,1,4,4,5,1,1,1,chose desirable,desirable fac.,"(2.08e+03,3.23e+03]",FALSE,425
33,33,X1,1,1,1,1,tv,6,4,0.666666667,1068,2870,7.962067309,0,11110,1,0.166666667,0.666666667,2,2,2,4,1,1,1,chose desirable,desirable fac.,"(2.08e+03,3.23e+03]",FALSE,120
34,34,X1,1,1,1,1,tv,19,12,0.631578947,4670,10312,9.241063545,0,1.10E+15,1,0.131578947,0.631578947,7,5,5,12,1,1,1,chose desirable,desirable fac.,"(7.41e+03,2.03e+05]",FALSE,412
35,35,X1,1,0,0,1,ph,22,12,0.545454545,2830,11785,9.374582815,0,1.10E+20,1,0.045454545,0.545454545,10,2,2,12,1,1,1,chose desirable,desirable fac.,"(7.41e+03,2.03e+05]",FALSE,235
36,36,X1,1,1,0,0,ph,18,10,0.555555556,2847,9721,9.182043773,0,1.10E+14,0,0.055555556,0.555555556,8,2,2,10,0,-1,1,chose desirable,undesirable fac.,"(7.41e+03,2.03e+05]",FALSE,371
37,37,X1,0,1,1,0,ph,11,4,0.363636364,4095,5924,8.686767175,0,101010001,1,-0.136363636,0.636363636,7,-3,3,7,1,-1,-1,chose undesirable,undesirable fac.,"(4.69e+03,7.41e+03]",FALSE,424
38,38,X1,1,1,0,0,ph,38,15,0.394736842,3321,20695,9.937647404,0,1.00E+37,0,-0.105263158,0.394736842,23,-8,-8,15,0,-1,1,chose desirable,undesirable fac.,"(7.41e+03,2.03e+05]",FALSE,345
39,39,X1,1,0,0,1,ph,10,9,0.9,568,5121,8.541105011,0,1101111111,1,0.4,0.9,1,8,8,9,1,1,1,chose desirable,desirable fac.,"(4.69e+03,7.41e+03]",FALSE,171
40,40,X1,0,0,0,0,tv,4,1,0.25,4192,2008,7.604894481,0,10,1,-0.25,0.75,3,-2,2,3,1,-1,-1,chose undesirable,undesirable fac.,"[1,2.08e+03]",FALSE,358
42,42,X1,1,0,1,0,tv,6,6,1,3693,3269,8.092239407,0,111111,0,0.5,1,0,6,6,6,0,-1,1,chose desirable,undesirable fac.,"(3.23e+03,4.69e+03]",FALSE,519
44,44,X1,0,0,0,0,tv,8,2,0.25,559,4216,8.34664209,0,100100,1,-0.25,0.75,6,-4,4,6,1,-1,-1,chose undesirable,undesirable fac.,"(3.23e+03,4.69e+03]",FALSE,366
45,45,X1,0,0,1,1,ph,3,0,0,1592,1608,7.38274645,0,0,0,-0.5,1,3,-3,3,3,0,1,-1,chose undesirable,desirable fac.,"[1,2.08e+03]",FALSE,508
46,46,X1,1,1,1,1,tv,32,18,0.5625,3615,17163,9.750511183,0,1.11E+28,1,0.0625,0.5625,14,4,4,18,1,1,1,chose desirable,desirable fac.,"(7.41e+03,2.03e+05]",FALSE,113
47,47,X1,0,0,1,1,ph,11,2,0.181818182,2364,5712,8.650324504,0,1001000000,0,-0.318181818,0.818181818,9,-7,7,9,0,1,-1,chose undesirable,desirable fac.,"(4.69e+03,7.41e+03]",FALSE,212
48,48,X1,1,0,0,1,ph,10,7,0.7,720,5111,8.539150359,0,1011101110,1,0.2,0.7,3,4,4,7,1,1,1,chose desirable,desirable fac.,"(4.69e+03,7.41e+03]",FALSE,161
49,49,X1,0,0,0,0,tv,5,1,0.2,1042,2258,7.722234745,0,1,1,-0.3,0.8,4,-3,3,4,1,-1,-1,chose undesirable,undesirable fac.,"(2.08e+03,3.23e+03]",FALSE,58
50,50,X1,0,1,1,0,ph,6,1,0.166666667,3856,2875,7.963807953,0,100000,1,-0.333333333,0.833333333,5,-4,4,5,1,-1,-1,chose undesirable,undesirable fac.,"(2.08e+03,3.23e+03]",FALSE,125
51,51,X1,1,1,1,1,tv,10,7,0.7,2340,5488,8.610319169,0,1101110110,1,0.2,0.7,3,4,4,7,1,1,1,chose desirable,desirable fac.,"(4.69e+03,7.41e+03]",FALSE,538
52,52,X1,1,1,0,0,ph,26,15,0.576923077,1389,14060,9.551089165,0,1.01E+24,0,0.076923077,0.576923077,11,4,4,15,0,-1,1,chose desirable,undesirable fac.,"(7.41e+03,2.03e+05]",FALSE,310
53,53,X1,1,0,0,1,ph,4,4,1,2404,1734,7.458186157,0,1111,1,0.5,1,0,4,4,4,1,1,1,chose desirable,desirable fac.,"[1,2.08e+03]",FALSE,84
55,55,X1,1,1,1,1,tv,8,7,0.875,2342,4257,8.356319966,0,11011111,1,0.375,0.875,1,6,6,7,1,1,1,chose desirable,desirable fac.,"(3.23e+03,4.69e+03]",FALSE,407
56,56,X1,0,0,0,0,tv,8,2,0.25,472,4400,8.38935982,0,11000000,1,-0.25,0.75,6,-4,4,6,1,-1,-1,chose undesirable,undesirable fac.,"(3.23e+03,4.69e+03]",FALSE,550
58,58,X1,1,1,1,1,tv,14,10,0.714285714,1895,7392,8.908153613,0,1.10E+12,1,0.214285714,0.714285714,4,6,6,10,1,1,1,chose desirable,desirable fac.,"(4.69e+03,7.41e+03]",FALSE,242
59,59,X1,1,0,0,1,ph,7,5,0.714285714,1203,3490,8.157657015,0,110111,1,0.214285714,0.714285714,2,3,3,5,1,1,1,chose desirable,desirable fac.,"(3.23e+03,4.69e+03]",FALSE,190
60,60,X1,1,0,1,0,tv,8,5,0.625,1251,4141,8.328692584,0,1011110,0,0.125,0.625,3,2,2,5,0,-1,1,chose desirable,undesirable fac.,"(3.23e+03,4.69e+03]",FALSE,291
61,61,X1,1,0,0,1,ph,15,9,0.6,3837,8045,8.992806059,0,1.11E+14,1,0.1,0.6,6,3,3,9,1,1,1,chose desirable,desirable fac.,"(7.41e+03,2.03e+05]",FALSE,345
62,62,X1,1,1,1,1,tv,2,2,1,1031,768,6.643789733,1,11,1,0.5,1,0,2,2,2,1,1,1,chose desirable,desirable fac.,"[1,2.08e+03]",FALSE,218
63,63,X1,0,1,1,0,ph,6,2,0.333333333,1807,3122,8.046229101,0,100001,1,-0.166666667,0.666666667,4,-2,2,4,1,-1,-1,chose undesirable,undesirable fac.,"(2.08e+03,3.23e+03]",FALSE,372
64,64,X1,0,1,0,1,tv,17,8,0.470588235,911,8864,9.089753409,0,1.00E+16,0,-0.029411765,0.529411765,9,-1,1,9,0,1,-1,chose undesirable,desirable fac.,"(7.41e+03,2.03e+05]",FALSE,64
65,65,X1,1,1,1,1,tv,15,9,0.6,1184,8040,8.992184362,0,1.01E+13,1,0.1,0.6,6,3,3,9,1,1,1,chose desirable,desirable fac.,"(7.41e+03,2.03e+05]",FALSE,340
66,66,X1,1,1,1,1,tv,12,9,0.75,1759,6143,8.723068501,0,11111001111,1,0.25,0.75,3,6,6,9,1,1,1,chose desirable,desirable fac.,"(4.69e+03,7.41e+03]",FALSE,93
68,68,X1,1,0,0,1,ph,15,9,0.6,2804,7975,8.984066928,0,1.11E+12,1,0.1,0.6,6,3,3,9,1,1,1,chose desirable,desirable fac.,"(7.41e+03,2.03e+05]",FALSE,275
69,69,X1,0,0,1,1,ph,3,1,0.333333333,2521,1133,7.032624261,0,1,0,-0.166666667,0.666666667,2,-1,1,2,0,1,-1,chose undesirable,desirable fac.,"[1,2.08e+03]",FALSE,33
70,70,X1,0,1,1,0,ph,10,3,0.3,2194,5397,8.593598523,0,1000110000,1,-0.2,0.7,7,-4,4,7,1,-1,-1,chose undesirable,undesirable fac.,"(4.69e+03,7.41e+03]",FALSE,447
71,71,X1,1,0,0,1,ph,11,7,0.636363636,1552,5599,8.630343289,0,111110110,1,0.136363636,0.636363636,4,3,3,7,1,1,1,chose desirable,desirable fac.,"(4.69e+03,7.41e+03]",FALSE,99
72,72,X1,0,0,0,0,tv,12,3,0.25,4564,6277,8.744647438,0,10101,1,-0.25,0.75,9,-6,6,9,1,-1,-1,chose undesirable,undesirable fac.,"(4.69e+03,7.41e+03]",FALSE,227
73,73,X1,1,1,0,0,ph,7,5,0.714285714,2066,3782,8.238008249,0,1110110,0,0.214285714,0.714285714,2,3,3,5,0,-1,1,chose desirable,undesirable fac.,"(3.23e+03,4.69e+03]",FALSE,482
74,74,X1,1,0,0,1,ph,7,6,0.857142857,1382,3737,8.226038429,0,1011111,1,0.357142857,0.857142857,1,5,5,6,1,1,1,chose desirable,desirable fac.,"(3.23e+03,4.69e+03]",FALSE,437
75,75,X1,1,1,1,1,tv,18,12,0.666666667,2422,9522,9.16136019,3,1.10E+16,1,0.166666667,0.666666667,6,6,6,12,1,1,1,chose desirable,desirable fac.,"(7.41e+03,2.03e+05]",FALSE,172
78,78,X1,0,1,0,1,tv,5,2,0.4,859,2389,7.778630147,0,1001,0,-0.1,0.6,3,-1,1,3,0,1,-1,chose undesirable,desirable fac.,"(2.08e+03,3.23e+03]",FALSE,189
79,79,X1,1,0,1,0,tv,17,9,0.529411765,2679,9185,9.125326998,0,1.10E+14,0,0.029411765,0.529411765,8,1,1,9,0,-1,1,chose desirable,undesirable fac.,"(7.41e+03,2.03e+05]",FALSE,385
80,80,X1,0,1,1,0,ph,7,1,0.142857143,2143,3341,8.114025442,0,1000,1,-0.357142857,0.857142857,6,-5,5,6,1,-1,-1,chose undesirable,undesirable fac.,"(3.23e+03,4.69e+03]",FALSE,41
81,81,X1,0,1,1,0,ph,17,5,0.294117647,1993,9286,9.136263169,0,1.00E+13,1,-0.205882353,0.705882353,12,-7,7,12,1,-1,-1,chose undesirable,undesirable fac.,"(7.41e+03,2.03e+05]",FALSE,486
82,82,X1,0,0,0,0,tv,8,2,0.25,1606,4189,8.340217321,0,1010000,1,-0.25,0.75,6,-4,4,6,1,-1,-1,chose undesirable,undesirable fac.,"(3.23e+03,4.69e+03]",FALSE,339
83,83,X1,0,1,1,0,ph,9,3,0.333333333,1247,4949,8.506940815,0,10101000,1,-0.166666667,0.666666667,6,-3,3,6,1,-1,-1,chose undesirable,undesirable fac.,"(4.69e+03,7.41e+03]",FALSE,549
85,85,X1,0,0,0,0,tv,4,3,0.75,2432,1872,7.534762657,0,111,1,0.25,0.25,1,2,-2,1,1,-1,-1,chose undesirable,undesirable fac.,"[1,2.08e+03]",FALSE,222
86,86,X1,1,1,1,1,tv,7,5,0.714285714,3615,3840,8.253227646,0,1101011,1,0.214285714,0.714285714,2,3,3,5,1,1,1,chose desirable,desirable fac.,"(3.23e+03,4.69e+03]",FALSE,540
87,87,X1,1,1,0,0,ph,6,3,0.5,3662,2847,7.954021087,0,101010,0,0,0.5,3,0,0,3,0,-1,1,chose desirable,undesirable fac.,"(2.08e+03,3.23e+03]",FALSE,97
88,88,X1,1,0,0,1,ph,8,6,0.75,3661,3944,8.279950716,0,1101111,1,0.25,0.75,2,4,4,6,1,1,1,chose desirable,desirable fac.,"(3.23e+03,4.69e+03]",FALSE,94
89,89,X1,1,1,1,1,tv,9,7,0.777777778,1920,4435,8.397282895,0,110110111,1,0.277777778,0.777777778,2,5,5,7,1,1,1,chose desirable,desirable fac.,"(3.23e+03,4.69e+03]",FALSE,35
90,90,X1,0,1,1,0,ph,11,4,0.363636364,6546,5566,8.624431942,0,10001000011,1,-0.136363636,0.636363636,7,-3,3,7,1,-1,-1,chose undesirable,undesirable fac.,"(4.69e+03,7.41e+03]",FALSE,66
91,91,X1,1,0,1,0,tv,12,6,0.5,1429,6236,8.73809423,0,100011111,0,0,0.5,6,0,0,6,0,-1,1,chose desirable,undesirable fac.,"(4.69e+03,7.41e+03]",FALSE,186
92,92,X1,1,0,1,0,tv,6,6,1,4055,3257,8.088561805,0,111111,0,0.5,1,0,6,6,6,0,-1,1,chose desirable,undesirable fac.,"(3.23e+03,4.69e+03]",FALSE,507
93,93,X1,1,0,0,1,ph,5,5,1,1741,2224,7.707062655,0,11111,1,0.5,1,0,5,5,5,1,1,1,chose desirable,desirable fac.,"(2.08e+03,3.23e+03]",FALSE,24
94,94,X1,1,0,0,1,ph,7,4,0.571428571,712,3464,8.15017927,0,1011010,1,0.071428571,0.571428571,3,1,1,4,1,1,1,chose desirable,desirable fac.,"(3.23e+03,4.69e+03]",FALSE,164
95,95,X1,1,1,1,1,tv,20,11,0.55,1877,10531,9.262078567,0,1.10E+18,1,0.05,0.55,9,2,2,11,1,1,1,chose desirable,desirable fac.,"(7.41e+03,2.03e+05]",FALSE,81
96,1,X2,1,0,0,1,ph,4,4,1,522,1878,7.53796266,0,1111,1,0.5,1,0,4,4,4,1,1,1,chose desirable,desirable fac.,"[1,2.08e+03]",FALSE,228
97,2,X2,0,1,1,0,ph,7,2,0.285714286,2411,3588,8.185350223,0,1000001,1,-0.214285714,0.714285714,5,-3,3,5,1,-1,-1,chose undesirable,undesirable fac.,"(3.23e+03,4.69e+03]",FALSE,288
98,3,X2,0,0,0,0,tv,18,7,0.388888889,747,9777,9.187787968,0,1.10E+15,1,-0.111111111,0.611111111,11,-4,4,11,1,-1,-1,chose undesirable,undesirable fac.,"(7.41e+03,2.03e+05]",FALSE,427
99,4,X2,0,0,0,0,tv,10,2,0.2,1104,5306,8.576593535,0,10000001,1,-0.3,0.8,8,-6,6,8,1,-1,-1,chose undesirable,undesirable fac.,"(4.69e+03,7.41e+03]",FALSE,356
103,8,X2,0,1,0,1,tv,5,2,0.4,743,2473,7.813187268,0,10001,0,-0.1,0.6,3,-1,1,3,0,1,-1,chose undesirable,desirable fac.,"(2.08e+03,3.23e+03]",FALSE,273
104,9,X2,1,1,1,1,tv,4,4,1,1763,1863,7.529943371,2,1111,1,0.5,1,0,4,4,4,1,1,1,chose desirable,desirable fac.,"[1,2.08e+03]",FALSE,213
106,11,X2,0,1,0,1,tv,6,2,0.333333333,1860,3061,8.026496939,0,11,0,-0.166666667,0.666666667,4,-2,2,4,0,1,-1,chose undesirable,desirable fac.,"(2.08e+03,3.23e+03]",FALSE,311
107,12,X2,0,0,1,1,ph,5,1,0.2,881,2652,7.883069351,0,1,0,-0.3,0.8,4,-3,3,4,0,1,-1,chose undesirable,desirable fac.,"(2.08e+03,3.23e+03]",FALSE,452
108,13,X2,1,0,1,0,tv,9,4,0.444444444,1080,4459,8.402679805,0,10101100,0,-0.055555556,0.444444444,5,-1,-1,4,0,-1,1,chose desirable,undesirable fac.,"(3.23e+03,4.69e+03]",FALSE,59
109,14,X2,0,1,0,1,tv,15,6,0.4,588,8018,8.989444293,7,1.01E+13,0,-0.1,0.6,9,-3,3,9,0,1,-1,chose undesirable,desirable fac.,"(7.41e+03,2.03e+05]",FALSE,318
110,15,X2,1,1,1,1,tv,6,4,0.666666667,542,2991,8.003363059,0,101110,1,0.166666667,0.666666667,2,2,2,4,1,1,1,chose desirable,desirable fac.,"(2.08e+03,3.23e+03]",FALSE,241
111,16,X2,1,1,1,1,tv,8,6,0.75,687,4304,8.367300102,0,11110101,1,0.25,0.75,2,4,4,6,1,1,1,chose desirable,desirable fac.,"(3.23e+03,4.69e+03]",FALSE,454
112,17,X2,1,1,0,0,ph,4,2,0.5,1717,1745,7.464509835,1,1010,0,0,0.5,2,0,0,2,0,-1,1,chose desirable,undesirable fac.,"[1,2.08e+03]",FALSE,95
113,18,X2,1,1,0,0,ph,10,5,0.5,1104,5018,8.520786727,0,1011001010,0,0,0.5,5,0,0,5,0,-1,1,chose desirable,undesirable fac.,"(4.69e+03,7.41e+03]",FALSE,68
114,19,X2,1,1,1,1,tv,13,11,0.846153846,1366,6856,8.83287946,0,1.11E+12,1,0.346153846,0.846153846,2,9,9,11,1,1,1,chose desirable,desirable fac.,"(4.69e+03,7.41e+03]",FALSE,256
115,20,X2,1,1,0,0,ph,4,2,0.5,206,1690,7.432483808,0,1010,0,0,0.5,2,0,0,2,0,-1,1,chose desirable,undesirable fac.,"[1,2.08e+03]",FALSE,40
116,21,X2,0,0,0,0,tv,16,7,0.4375,949,8335,9.028218795,1,1.00E+15,1,-0.0625,0.5625,9,-2,2,9,1,-1,-1,chose undesirable,undesirable fac.,"(7.41e+03,2.03e+05]",FALSE,85
117,22,X2,1,0,0,1,ph,14,11,0.785714286,16284,7322,8.898638794,7,1.11E+12,1,0.285714286,0.785714286,3,8,8,11,1,1,1,chose desirable,desirable fac.,"(4.69e+03,7.41e+03]",FALSE,172
118,23,X2,1,0,0,1,ph,6,5,0.833333333,869,3066,8.028129059,0,111110,1,0.333333333,0.833333333,1,4,4,5,1,1,1,chose desirable,desirable fac.,"(2.08e+03,3.23e+03]",FALSE,316
119,24,X2,1,0,0,1,ph,10,7,0.7,952,5135,8.543835122,0,1011011011,1,0.2,0.7,3,4,4,7,1,1,1,chose desirable,desirable fac.,"(4.69e+03,7.41e+03]",FALSE,185
120,25,X2,0,1,0,1,tv,8,4,0.5,1337,4322,8.371473537,0,11000011,0,0,0.5,4,0,0,4,0,1,-1,chose undesirable,desirable fac.,"(3.23e+03,4.69e+03]",FALSE,472
121,26,X2,1,1,0,0,ph,11,6,0.545454545,822,5536,8.619027497,0,10011011010,0,0.045454545,0.545454545,5,1,1,6,0,-1,1,chose desirable,undesirable fac.,"(4.69e+03,7.41e+03]",FALSE,36
122,27,X2,0,1,0,1,tv,8,4,0.5,743,4272,8.359837381,0,110101,0,0,0.5,4,0,0,4,0,1,-1,chose undesirable,desirable fac.,"(3.23e+03,4.69e+03]",FALSE,422
123,28,X2,1,1,1,1,tv,5,2,0.4,893,2471,7.812378206,0,10010,1,-0.1,0.4,3,-1,-1,2,1,1,1,chose desirable,desirable fac.,"(2.08e+03,3.23e+03]",FALSE,271
124,29,X2,1,0,0,1,ph,13,9,0.692307692,2166,7144,8.874028123,0,1.10E+12,1,0.192307692,0.692307692,4,5,5,9,1,1,1,chose desirable,desirable fac.,"(4.69e+03,7.41e+03]",FALSE,544
125,30,X2,0,0,1,1,ph,11,6,0.545454545,3014,5608,8.631949429,0,10100100111,0,0.045454545,0.454545455,5,1,-1,5,0,1,-1,chose undesirable,desirable fac.,"(4.69e+03,7.41e+03]",FALSE,108
126,31,X2,0,0,0,0,tv,17,7,0.411764706,2353,8846,9.087720658,0,1.00E+13,1,-0.088235294,0.588235294,10,-3,3,10,1,-1,-1,chose undesirable,undesirable fac.,"(7.41e+03,2.03e+05]",FALSE,46
127,32,X2,1,1,0,0,ph,28,12,0.428571429,1081,14910,9.609787408,0,1.00E+27,0,-0.071428571,0.428571429,16,-4,-4,12,0,-1,1,chose desirable,undesirable fac.,"(7.41e+03,2.03e+05]",FALSE,60
128,33,X2,0,0,0,0,tv,6,0,0,713,3238,8.082711134,0,0,1,-0.5,1,6,-6,6,6,1,-1,-1,chose undesirable,undesirable fac.,"(3.23e+03,4.69e+03]",FALSE,488
129,34,X2,1,1,1,1,tv,19,14,0.736842105,1046,10175,9.22768901,0,1.01E+18,1,0.236842105,0.736842105,5,9,9,14,1,1,1,chose desirable,desirable fac.,"(7.41e+03,2.03e+05]",FALSE,275
130,35,X2,1,0,0,1,ph,11,7,0.636363636,2078,5946,8.690474004,0,1111010110,1,0.136363636,0.636363636,4,3,3,7,1,1,1,chose desirable,desirable fac.,"(4.69e+03,7.41e+03]",FALSE,446
131,36,X2,1,1,0,0,ph,29,13,0.448275862,1312,15503,9.648788833,0,1.10E+26,0,-0.051724138,0.448275862,16,-3,-3,13,0,-1,1,chose desirable,undesirable fac.,"(7.41e+03,2.03e+05]",FALSE,103
132,37,X2,0,0,1,1,ph,11,4,0.363636364,1499,5559,8.623173515,0,100100101,0,-0.136363636,0.636363636,7,-3,3,7,0,1,-1,chose undesirable,desirable fac.,"(4.69e+03,7.41e+03]",FALSE,59
133,38,X2,1,0,0,1,ph,26,16,0.615384615,1915,14045,9.55002174,0,1.11E+25,1,0.115384615,0.615384615,10,6,6,16,1,1,1,chose desirable,desirable fac.,"(7.41e+03,2.03e+05]",FALSE,295
134,39,X2,1,0,0,1,ph,7,6,0.857142857,823,3356,8.118505068,0,1111110,1,0.357142857,0.857142857,1,5,5,6,1,1,1,chose desirable,desirable fac.,"(3.23e+03,4.69e+03]",FALSE,56
135,40,X2,1,0,1,0,tv,5,3,0.6,1975,2608,7.866338923,0,11010,0,0.1,0.6,2,1,1,3,0,-1,1,chose desirable,undesirable fac.,"(2.08e+03,3.23e+03]",FALSE,408
137,42,X2,1,1,1,1,tv,7,5,0.714285714,619,3702,8.216628493,0,1001111,1,0.214285714,0.714285714,2,3,3,5,1,1,1,chose desirable,desirable fac.,"(3.23e+03,4.69e+03]",FALSE,402
139,44,X2,1,1,1,1,tv,5,4,0.8,78,2616,7.869401713,0,10111,1,0.3,0.8,1,3,3,4,1,1,1,chose desirable,desirable fac.,"(2.08e+03,3.23e+03]",FALSE,416
140,45,X2,0,0,1,1,ph,4,1,0.25,655,1728,7.454719949,0,1,0,-0.25,0.75,3,-2,2,3,0,1,-1,chose undesirable,desirable fac.,"[1,2.08e+03]",FALSE,78
141,46,X2,1,0,1,0,tv,15,9,0.6,1111,7898,8.974364842,0,1.00E+14,0,0.1,0.6,6,3,3,9,0,-1,1,chose desirable,undesirable fac.,"(7.41e+03,2.03e+05]",FALSE,198
142,47,X2,1,0,0,1,ph,11,6,0.545454545,1252,5924,8.686767175,0,1001011110,1,0.045454545,0.545454545,5,1,1,6,1,1,1,chose desirable,desirable fac.,"(4.69e+03,7.41e+03]",FALSE,424
143,48,X2,0,1,1,0,ph,32,14,0.4375,1463,17415,9.765087183,0,1.01E+30,1,-0.0625,0.5625,18,-4,4,18,1,-1,-1,chose undesirable,undesirable fac.,"(7.41e+03,2.03e+05]",FALSE,365
144,49,X2,0,1,0,1,tv,6,1,0.166666667,1268,3151,8.055475142,0,100000,0,-0.333333333,0.833333333,5,-4,4,5,0,1,-1,chose undesirable,desirable fac.,"(2.08e+03,3.23e+03]",FALSE,401
145,50,X2,1,0,0,1,ph,14,9,0.642857143,1934,7690,8.947676062,0,1.11E+13,1,0.142857143,0.642857143,5,4,4,9,1,1,1,chose desirable,desirable fac.,"(7.41e+03,2.03e+05]",FALSE,540
146,51,X2,0,0,0,0,tv,10,2,0.2,2371,5340,8.582980932,0,11000,1,-0.3,0.8,8,-6,6,8,1,-1,-1,chose undesirable,undesirable fac.,"(4.69e+03,7.41e+03]",FALSE,390
147,52,X2,1,0,0,1,ph,7,5,0.714285714,1229,3528,8.168486417,0,1110110,1,0.214285714,0.714285714,2,3,3,5,1,1,1,chose desirable,desirable fac.,"(3.23e+03,4.69e+03]",FALSE,228
148,53,X2,0,1,1,0,ph,3,0,0,633,1547,7.344072851,0,0,1,-0.5,1,3,-3,3,3,1,-1,-1,chose undesirable,undesirable fac.,"[1,2.08e+03]",FALSE,447
150,55,X2,1,1,1,1,tv,8,7,0.875,1269,3928,8.275885669,0,11111110,1,0.375,0.875,1,6,6,7,1,1,1,chose desirable,desirable fac.,"(3.23e+03,4.69e+03]",FALSE,78
151,56,X2,1,1,1,1,tv,9,7,0.777777778,1359,4407,8.390949465,0,111010111,1,0.277777778,0.777777778,2,5,5,7,1,1,1,chose desirable,desirable fac.,"(3.23e+03,4.69e+03]",FALSE,7
153,58,X2,1,1,1,1,tv,19,11,0.578947368,1598,10177,9.227885551,0,1.10E+18,1,0.078947368,0.578947368,8,3,3,11,1,1,1,chose desirable,desirable fac.,"(7.41e+03,2.03e+05]",FALSE,277
154,59,X2,1,0,0,1,ph,6,4,0.666666667,1357,2969,7.995980475,0,110110,1,0.166666667,0.666666667,2,2,2,4,1,1,1,chose desirable,desirable fac.,"(2.08e+03,3.23e+03]",FALSE,219
155,60,X2,0,0,0,0,tv,11,6,0.545454545,1411,5655,8.640295389,0,11100100101,1,0.045454545,0.454545455,5,1,-1,5,1,-1,-1,chose undesirable,undesirable fac.,"(4.69e+03,7.41e+03]",FALSE,155
156,61,X2,1,0,0,1,ph,9,6,0.666666667,653,4677,8.450412158,0,111100110,1,0.166666667,0.666666667,3,3,3,6,1,1,1,chose desirable,desirable fac.,"(3.23e+03,4.69e+03]",FALSE,277
157,62,X2,1,0,1,0,tv,2,0,0,14175,864,6.761572769,1,0,0,-0.5,0,2,-2,-2,0,0,-1,1,chose desirable,undesirable fac.,"[1,2.08e+03]",FALSE,314
158,63,X2,1,0,0,1,ph,10,7,0.7,1081,5055,8.528133131,0,110011111,1,0.2,0.7,3,4,4,7,1,1,1,chose desirable,desirable fac.,"(4.69e+03,7.41e+03]",FALSE,105
159,64,X2,1,1,1,1,tv,7,6,0.857142857,1024,3335,8.112227958,0,1110111,1,0.357142857,0.857142857,1,5,5,6,1,1,1,chose desirable,desirable fac.,"(3.23e+03,4.69e+03]",FALSE,35
160,65,X2,0,1,0,1,tv,13,4,0.307692308,1209,7017,8.856091055,0,1.00E+12,0,-0.192307692,0.692307692,9,-5,5,9,0,1,-1,chose undesirable,desirable fac.,"(4.69e+03,7.41e+03]",FALSE,417
161,66,X2,0,0,0,0,tv,12,3,0.25,1595,6209,8.733755131,0,1000010001,1,-0.25,0.75,9,-6,6,9,1,-1,-1,chose undesirable,undesirable fac.,"(4.69e+03,7.41e+03]",FALSE,159
163,68,X2,0,1,1,0,ph,12,3,0.25,776,6154,8.724857556,0,1.00E+11,1,-0.25,0.75,9,-6,6,9,1,-1,-1,chose undesirable,undesirable fac.,"(4.69e+03,7.41e+03]",FALSE,104
164,69,X2,1,1,0,0,ph,3,1,0.333333333,891,1454,7.282073658,0,100,0,-0.166666667,0.333333333,2,-1,-1,1,0,-1,1,chose desirable,undesirable fac.,"[1,2.08e+03]",FALSE,354
165,70,X2,1,0,0,1,ph,12,7,0.583333333,900,6329,8.752897525,0,1100111011,1,0.083333333,0.583333333,5,2,2,7,1,1,1,chose desirable,desirable fac.,"(4.69e+03,7.41e+03]",FALSE,279
166,71,X2,1,0,0,1,ph,3,3,1,1174,1604,7.380255788,0,111,1,0.5,1,0,3,3,3,1,1,1,chose desirable,desirable fac.,"[1,2.08e+03]",FALSE,504
167,72,X2,0,0,0,0,tv,19,5,0.263157895,3252,10044,9.21473072,0,1.01E+14,1,-0.236842105,0.736842105,14,-9,9,14,1,-1,-1,chose undesirable,undesirable fac.,"(7.41e+03,2.03e+05]",FALSE,144
168,73,X2,1,1,0,0,ph,8,6,0.75,1770,3909,8.271036866,0,1101111,0,0.25,0.75,2,4,4,6,0,-1,1,chose desirable,undesirable fac.,"(3.23e+03,4.69e+03]",FALSE,59
169,74,X2,1,0,0,1,ph,14,9,0.642857143,1015,7276,8.89233654,0,1.00E+13,1,0.142857143,0.642857143,5,4,4,9,1,1,1,chose desirable,desirable fac.,"(4.69e+03,7.41e+03]",FALSE,126
170,75,X2,1,1,1,1,tv,21,14,0.666666667,2063,11268,9.329722129,0,1.00E+20,1,0.166666667,0.666666667,7,7,7,14,1,1,1,chose desirable,desirable fac.,"(7.41e+03,2.03e+05]",FALSE,268
173,78,X2,0,0,0,0,tv,5,0,0,895,2483,7.817222786,0,0,1,-0.5,1,5,-5,5,5,1,-1,-1,chose undesirable,undesirable fac.,"(2.08e+03,3.23e+03]",FALSE,283
174,79,X2,0,1,0,1,tv,8,3,0.375,2884,4148,8.330381569,0,1100001,0,-0.125,0.625,5,-2,2,5,0,1,-1,chose undesirable,desirable fac.,"(3.23e+03,4.69e+03]",FALSE,298
175,80,X2,0,0,1,1,ph,8,2,0.25,2345,4354,8.378850242,0,10100,0,-0.25,0.75,6,-4,4,6,0,1,-1,chose undesirable,desirable fac.,"(3.23e+03,4.69e+03]",FALSE,504
176,81,X2,0,0,1,1,ph,10,3,0.3,3225,5042,8.525558108,0,1010001,0,-0.2,0.7,7,-4,4,7,0,1,-1,chose undesirable,desirable fac.,"(4.69e+03,7.41e+03]",FALSE,92
177,82,X2,1,1,1,1,tv,8,5,0.625,373,4034,8.302513719,0,101111,1,0.125,0.625,3,2,2,5,1,1,1,chose desirable,desirable fac.,"(3.23e+03,4.69e+03]",FALSE,184
178,83,X2,1,0,0,1,ph,21,13,0.619047619,915,11344,9.336444249,0,1.11E+20,1,0.119047619,0.619047619,8,5,5,13,1,1,1,chose desirable,desirable fac.,"(7.41e+03,2.03e+05]",FALSE,344
179,84,X2,0,0,1,1,ph,7,3,0.428571429,566,3479,8.154500175,0,1010001,0,-0.071428571,0.571428571,4,-1,1,4,0,1,-1,chose undesirable,desirable fac.,"(3.23e+03,4.69e+03]",FALSE,179
180,85,X2,1,0,1,0,tv,4,3,0.75,1221,2096,7.647786045,0,111,0,0.25,0.75,1,2,2,3,0,-1,1,chose desirable,undesirable fac.,"(2.08e+03,3.23e+03]",FALSE,446
181,86,X2,0,0,0,0,tv,5,2,0.4,1423,2664,7.887584032,0,10001,1,-0.1,0.6,3,-1,1,3,1,-1,-1,chose undesirable,undesirable fac.,"(2.08e+03,3.23e+03]",FALSE,464
182,87,X2,0,1,1,0,ph,5,2,0.4,1518,2676,7.892078421,0,1001,1,-0.1,0.6,3,-1,1,3,1,-1,-1,chose undesirable,undesirable fac.,"(2.08e+03,3.23e+03]",FALSE,476
183,88,X2,0,0,1,1,ph,9,4,0.444444444,1389,4889,8.494743063,0,100011001,0,-0.055555556,0.555555556,5,-1,1,5,0,1,-1,chose undesirable,desirable fac.,"(4.69e+03,7.41e+03]",FALSE,489
184,89,X2,1,1,1,1,tv,9,8,0.888888889,2012,4642,8.442900587,0,101111111,1,0.388888889,0.888888889,1,7,7,8,1,1,1,chose desirable,desirable fac.,"(3.23e+03,4.69e+03]",FALSE,242
185,90,X2,0,1,1,0,ph,12,5,0.416666667,2347,6431,8.768885326,0,1.01E+11,1,-0.083333333,0.583333333,7,-2,2,7,1,-1,-1,chose undesirable,undesirable fac.,"(4.69e+03,7.41e+03]",FALSE,381
186,91,X2,0,0,0,0,tv,14,2,0.142857143,1165,7526,8.926118971,0,100001000,1,-0.357142857,0.857142857,12,-10,10,12,1,-1,-1,chose undesirable,undesirable fac.,"(7.41e+03,2.03e+05]",FALSE,376
187,92,X2,0,0,0,0,tv,6,1,0.166666667,302,2792,7.934513464,0,1,1,-0.333333333,0.833333333,5,-4,4,5,1,-1,-1,chose undesirable,undesirable fac.,"(2.08e+03,3.23e+03]",FALSE,42
188,93,X2,0,1,1,0,ph,5,0,0,5085,2451,7.804251384,0,0,1,-0.5,1,5,-5,5,5,1,-1,-1,chose undesirable,undesirable fac.,"(2.08e+03,3.23e+03]",FALSE,251
189,94,X2,0,0,1,1,ph,7,3,0.428571429,312,3423,8.138272639,0,10110,0,-0.071428571,0.571428571,4,-1,1,4,0,1,-1,chose undesirable,desirable fac.,"(3.23e+03,4.69e+03]",FALSE,123
190,95,X2,0,0,0,0,tv,35,14,0.4,1836,19175,9.861362626,0,1.00E+34,1,-0.1,0.6,21,-7,7,21,1,-1,-1,chose undesirable,undesirable fac.,"(7.41e+03,2.03e+05]",FALSE,475
191,1,X3,0,0,1,1,ph,8,4,0.5,167,4064,8.309922989,0,1001101,0,0,0.5,4,0,0,4,0,1,-1,chose undesirable,desirable fac.,"(3.23e+03,4.69e+03]",FALSE,214
192,2,X3,0,0,1,1,ph,21,11,0.523809524,498,11547,9.354180942,0,1.10E+18,0,0.023809524,0.476190476,10,1,-1,10,0,1,-1,chose undesirable,desirable fac.,"(7.41e+03,2.03e+05]",FALSE,547
193,3,X3,0,1,0,1,tv,12,5,0.416666667,212,6218,8.735203591,0,1.01E+11,0,-0.083333333,0.583333333,7,-2,2,7,0,1,-1,chose undesirable,desirable fac.,"(4.69e+03,7.41e+03]",FALSE,168
194,4,X3,1,1,1,1,tv,25,10,0.4,729,13463,9.507700461,1,1.01E+23,1,-0.1,0.4,15,-5,-5,10,1,1,1,chose desirable,desirable fac.,"(7.41e+03,2.03e+05]",FALSE,263
198,8,X3,0,0,0,0,tv,6,1,0.166666667,187,2863,7.959625305,0,100000,1,-0.333333333,0.833333333,5,-4,4,5,1,-1,-1,chose undesirable,undesirable fac.,"(2.08e+03,3.23e+03]",FALSE,113
199,9,X3,0,0,0,0,tv,9,3,0.333333333,1901,4574,8.428143375,4,11100000,1,-0.166666667,0.666666667,6,-3,3,6,1,-1,-1,chose undesirable,undesirable fac.,"(3.23e+03,4.69e+03]",FALSE,174
201,11,X3,0,0,0,0,tv,6,2,0.333333333,1664,3142,8.052614819,0,100010,1,-0.166666667,0.666666667,4,-2,2,4,1,-1,-1,chose undesirable,undesirable fac.,"(2.08e+03,3.23e+03]",FALSE,392
202,12,X3,1,1,0,0,ph,10,6,0.6,921,5160,8.548691858,0,1100011110,0,0.1,0.6,4,2,2,6,0,-1,1,chose desirable,undesirable fac.,"(4.69e+03,7.41e+03]",FALSE,210
203,13,X3,0,0,0,0,tv,4,1,0.25,953,2139,7.668093709,0,10,1,-0.25,0.75,3,-2,2,3,1,-1,-1,chose undesirable,undesirable fac.,"(2.08e+03,3.23e+03]",FALSE,489
204,14,X3,1,1,1,1,tv,4,3,0.75,508,1919,7.559559496,2,1110,1,0.25,0.75,1,2,2,3,1,1,1,chose desirable,desirable fac.,"[1,2.08e+03]",FALSE,269
205,15,X3,1,0,1,0,tv,6,3,0.5,965,3080,8.032684876,0,111,0,0,0.5,3,0,0,3,0,-1,1,chose desirable,undesirable fac.,"(2.08e+03,3.23e+03]",FALSE,330
206,16,X3,0,1,0,1,tv,9,4,0.444444444,478,4455,8.40178234,0,11010010,0,-0.055555556,0.555555556,5,-1,1,5,0,1,-1,chose undesirable,desirable fac.,"(3.23e+03,4.69e+03]",FALSE,55
207,17,X3,0,1,1,0,ph,8,3,0.375,627,4218,8.347116361,1,1010001,1,-0.125,0.625,5,-2,2,5,1,-1,-1,chose undesirable,undesirable fac.,"(3.23e+03,4.69e+03]",FALSE,368
208,18,X3,0,1,1,0,ph,4,0,0,697,1983,7.592366129,0,0,1,-0.5,1,4,-4,4,4,1,-1,-1,chose undesirable,undesirable fac.,"[1,2.08e+03]",FALSE,333
209,19,X3,1,0,1,0,tv,43,23,0.534883721,807,23303,10.05633739,0,1.10E+40,0,0.034883721,0.534883721,20,3,3,23,0,-1,1,chose desirable,undesirable fac.,"(7.41e+03,2.03e+05]",FALSE,203
210,20,X3,1,0,0,1,ph,4,3,0.75,567,2025,7.61332498,0,111,1,0.25,0.75,1,2,2,3,1,1,1,chose desirable,desirable fac.,"[1,2.08e+03]",FALSE,375
211,21,X3,1,1,1,1,tv,22,8,0.363636364,548,11968,9.3899917,4,1.00E+21,1,-0.136363636,0.363636364,14,-6,-6,8,1,1,1,chose desirable,desirable fac.,"(7.41e+03,2.03e+05]",FALSE,418
212,22,X3,1,0,0,1,ph,23,15,0.652173913,1332,12406,9.425935506,11,1.11E+22,1,0.152173913,0.652173913,8,7,7,15,1,1,1,chose desirable,desirable fac.,"(7.41e+03,2.03e+05]",FALSE,306
213,23,X3,1,0,0,1,ph,6,5,0.833333333,184,3134,8.050065423,0,101111,1,0.333333333,0.833333333,1,4,4,5,1,1,1,chose desirable,desirable fac.,"(2.08e+03,3.23e+03]",FALSE,384
214,24,X3,0,1,1,0,ph,13,4,0.307692308,438,6864,8.834045641,0,1.10E+12,1,-0.192307692,0.692307692,9,-5,5,9,1,-1,-1,chose undesirable,undesirable fac.,"(4.69e+03,7.41e+03]",FALSE,264
215,25,X3,1,1,1,1,tv,10,5,0.5,405,5377,8.589885877,0,11101010,1,0,0.5,5,0,0,5,1,1,1,chose desirable,desirable fac.,"(4.69e+03,7.41e+03]",FALSE,427
216,26,X3,1,0,0,1,ph,20,12,0.6,745,10953,9.30136867,0,1.00E+18,1,0.1,0.6,8,4,4,12,1,1,1,chose desirable,desirable fac.,"(7.41e+03,2.03e+05]",FALSE,503
217,27,X3,1,1,1,1,tv,6,4,0.666666667,736,3295,8.100161447,0,101110,1,0.166666667,0.666666667,2,2,2,4,1,1,1,chose desirable,desirable fac.,"(3.23e+03,4.69e+03]",FALSE,545
218,28,X3,1,1,1,1,tv,5,3,0.6,775,2453,7.805067044,0,1110,1,0.1,0.6,2,1,1,3,1,1,1,chose desirable,desirable fac.,"(2.08e+03,3.23e+03]",FALSE,253
219,29,X3,1,0,0,1,ph,14,10,0.714285714,2183,7415,8.911260255,0,1.11E+12,1,0.214285714,0.714285714,4,6,6,10,1,1,1,chose desirable,desirable fac.,"(7.41e+03,2.03e+05]",FALSE,265
220,30,X3,1,1,0,0,ph,15,8,0.533333333,343,8232,9.015784278,0,1.01E+13,0,0.033333333,0.533333333,7,1,1,8,0,-1,1,chose desirable,undesirable fac.,"(7.41e+03,2.03e+05]",FALSE,532
221,31,X3,1,1,1,1,tv,17,12,0.705882353,2142,9111,9.117237754,0,1.01E+15,1,0.205882353,0.705882353,5,7,7,12,1,1,1,chose desirable,desirable fac.,"(7.41e+03,2.03e+05]",FALSE,311
222,32,X3,0,1,1,0,ph,5,1,0.2,2302,2576,7.853993087,0,1,1,-0.3,0.8,4,-3,3,4,1,-1,-1,chose undesirable,undesirable fac.,"(2.08e+03,3.23e+03]",FALSE,376
223,33,X3,0,0,0,0,tv,6,1,0.166666667,667,2931,7.983098941,0,1,1,-0.333333333,0.833333333,5,-4,4,5,1,-1,-1,chose undesirable,undesirable fac.,"(2.08e+03,3.23e+03]",FALSE,181
224,34,X3,1,1,1,1,tv,27,17,0.62962963,968,14495,9.581559041,0,1.00E+26,1,0.12962963,0.62962963,10,7,7,17,1,1,1,chose desirable,desirable fac.,"(7.41e+03,2.03e+05]",FALSE,195
225,35,X3,0,1,1,0,ph,9,4,0.444444444,1575,4825,8.481566014,0,11000011,1,-0.055555556,0.555555556,5,-1,1,5,1,-1,-1,chose undesirable,undesirable fac.,"(4.69e+03,7.41e+03]",FALSE,425
226,36,X3,0,1,1,0,ph,20,6,0.3,1223,10640,9.272375763,0,1.10E+19,1,-0.2,0.7,14,-8,8,14,1,-1,-1,chose undesirable,undesirable fac.,"(7.41e+03,2.03e+05]",FALSE,190
227,37,X3,1,1,0,0,ph,7,4,0.571428571,1771,3807,8.244596756,0,11110,0,0.071428571,0.571428571,3,1,1,4,0,-1,1,chose desirable,undesirable fac.,"(3.23e+03,4.69e+03]",FALSE,507
228,38,X3,1,0,0,1,ph,23,17,0.739130435,1792,12127,9.403189651,0,1.00E+21,1,0.239130435,0.739130435,6,11,11,17,1,1,1,chose desirable,desirable fac.,"(7.41e+03,2.03e+05]",FALSE,27
229,39,X3,1,0,0,1,ph,23,13,0.565217391,994,12101,9.401043373,0,1.11E+21,1,0.065217391,0.565217391,10,3,3,13,1,1,1,chose desirable,desirable fac.,"(7.41e+03,2.03e+05]",FALSE,1
230,40,X3,0,0,0,0,tv,11,5,0.454545455,1919,5896,8.682029434,0,11101001,1,-0.045454545,0.545454545,6,-1,1,6,1,-1,-1,chose undesirable,undesirable fac.,"(4.69e+03,7.41e+03]",FALSE,396
232,42,X3,0,1,0,1,tv,10,5,0.5,1290,5172,8.55101474,0,1011100001,0,0,0.5,5,0,0,5,0,1,-1,chose undesirable,desirable fac.,"(4.69e+03,7.41e+03]",FALSE,222
234,44,X3,1,0,1,0,tv,11,7,0.636363636,79,5711,8.650149419,0,10101011011,0,0.136363636,0.636363636,4,3,3,7,0,-1,1,chose desirable,undesirable fac.,"(4.69e+03,7.41e+03]",FALSE,211
235,45,X3,0,1,1,0,ph,6,1,0.166666667,1296,3151,8.055475142,0,100,1,-0.333333333,0.833333333,5,-4,4,5,1,-1,-1,chose undesirable,undesirable fac.,"(2.08e+03,3.23e+03]",FALSE,401
236,46,X3,0,1,0,1,tv,20,9,0.45,627,10839,9.29090602,0,1.11E+15,0,-0.05,0.55,11,-2,2,11,0,1,-1,chose undesirable,desirable fac.,"(7.41e+03,2.03e+05]",FALSE,389
237,47,X3,0,1,1,0,ph,13,3,0.230769231,1412,6791,8.823353485,0,11010000000,1,-0.269230769,0.769230769,10,-7,7,10,1,-1,-1,chose undesirable,undesirable fac.,"(4.69e+03,7.41e+03]",FALSE,191
238,48,X3,1,0,0,1,ph,16,11,0.6875,839,8281,9.021719013,0,1.01E+15,1,0.1875,0.6875,5,6,6,11,1,1,1,chose desirable,desirable fac.,"(7.41e+03,2.03e+05]",FALSE,31
239,49,X3,0,1,0,1,tv,6,3,0.5,458,3058,8.025516386,0,100101,0,0,0.5,3,0,0,3,0,1,-1,chose undesirable,desirable fac.,"(2.08e+03,3.23e+03]",FALSE,308
240,50,X3,1,0,0,1,ph,18,9,0.5,1095,9786,9.188708072,0,1.01E+16,1,0,0.5,9,0,0,9,1,1,1,chose desirable,desirable fac.,"(7.41e+03,2.03e+05]",FALSE,436
241,51,X3,1,1,1,1,tv,10,7,0.7,710,5327,8.580543507,0,1101101110,1,0.2,0.7,3,4,4,7,1,1,1,chose desirable,desirable fac.,"(4.69e+03,7.41e+03]",FALSE,377
242,52,X3,0,0,1,1,ph,13,5,0.384615385,978,6671,8.805525053,0,1.00E+12,0,-0.115384615,0.615384615,8,-3,3,8,0,1,-1,chose undesirable,desirable fac.,"(4.69e+03,7.41e+03]",FALSE,71
243,53,X3,1,0,0,1,ph,7,5,0.714285714,366,3445,8.144679183,0,1010111,1,0.214285714,0.714285714,2,3,3,5,1,1,1,chose desirable,desirable fac.,"(3.23e+03,4.69e+03]",FALSE,145
245,55,X3,1,1,1,1,tv,14,9,0.642857143,406,7273,8.89192414,0,1.11E+13,1,0.142857143,0.642857143,5,4,4,9,1,1,1,chose desirable,desirable fac.,"(4.69e+03,7.41e+03]",FALSE,123
246,56,X3,0,0,0,0,tv,8,3,0.375,1895,4024,8.300031712,0,10100001,1,-0.125,0.625,5,-2,2,5,1,-1,-1,chose undesirable,undesirable fac.,"(3.23e+03,4.69e+03]",FALSE,174
248,58,X3,0,0,0,0,tv,16,5,0.3125,1174,8464,9.043577154,0,1.00E+15,1,-0.1875,0.6875,11,-6,6,11,1,-1,-1,chose undesirable,undesirable fac.,"(7.41e+03,2.03e+05]",FALSE,214
249,59,X3,0,1,1,0,ph,5,2,0.4,1537,2415,7.789454566,0,10001,1,-0.1,0.6,3,-1,1,3,1,-1,-1,chose undesirable,undesirable fac.,"(2.08e+03,3.23e+03]",FALSE,215
250,60,X3,1,1,1,1,tv,5,5,1,1156,2518,7.831220215,0,11111,1,0.5,1,0,5,5,5,1,1,1,chose desirable,desirable fac.,"(2.08e+03,3.23e+03]",FALSE,318
251,61,X3,1,1,0,0,ph,8,6,0.75,543,4374,8.383433201,0,1111011,0,0.25,0.75,2,4,4,6,0,-1,1,chose desirable,undesirable fac.,"(3.23e+03,4.69e+03]",FALSE,524
252,62,X3,0,0,0,0,tv,2,1,0.5,468,608,6.410174882,0,10,1,0,0.5,1,0,0,1,1,-1,-1,chose undesirable,undesirable fac.,"[1,2.08e+03]",FALSE,58
253,63,X3,0,1,1,0,ph,9,3,0.333333333,119,4490,8.409607981,0,110000001,1,-0.166666667,0.666666667,6,-3,3,6,1,-1,-1,chose undesirable,undesirable fac.,"(3.23e+03,4.69e+03]",FALSE,90
254,64,X3,0,0,0,0,tv,6,1,0.166666667,681,3024,8.014335737,0,100000,1,-0.333333333,0.833333333,5,-4,4,5,1,-1,-1,chose undesirable,undesirable fac.,"(2.08e+03,3.23e+03]",FALSE,274
255,65,X3,1,1,1,1,tv,15,10,0.666666667,829,7776,8.958797346,1,1.11E+12,1,0.166666667,0.666666667,5,5,5,10,1,1,1,chose desirable,desirable fac.,"(7.41e+03,2.03e+05]",FALSE,76
256,66,X3,1,1,1,1,tv,18,11,0.611111111,1607,9688,9.178643285,0,1.11E+15,1,0.111111111,0.611111111,7,4,4,11,1,1,1,chose desirable,desirable fac.,"(7.41e+03,2.03e+05]",FALSE,338
258,68,X3,1,0,0,1,ph,8,6,0.75,37,4320,8.371010681,0,1110111,1,0.25,0.75,2,4,4,6,1,1,1,chose desirable,desirable fac.,"(3.23e+03,4.69e+03]",FALSE,470
259,69,X3,0,0,1,1,ph,3,1,0.333333333,512,1541,7.340186835,0,1,0,-0.166666667,0.666666667,2,-1,1,2,0,1,-1,chose undesirable,desirable fac.,"[1,2.08e+03]",FALSE,441
260,70,X3,0,1,1,0,ph,15,5,0.333333333,642,8211,9.013229998,0,10011011,1,-0.166666667,0.666666667,10,-5,5,10,1,-1,-1,chose undesirable,undesirable fac.,"(7.41e+03,2.03e+05]",FALSE,511
261,71,X3,0,1,1,0,ph,6,2,0.333333333,416,2847,7.954021087,0,100001,1,-0.166666667,0.666666667,4,-2,2,4,1,-1,-1,chose undesirable,undesirable fac.,"(2.08e+03,3.23e+03]",FALSE,97
262,72,X3,0,0,0,0,tv,20,6,0.3,3425,10755,9.283126042,0,1.10E+18,1,-0.2,0.7,14,-8,8,14,1,-1,-1,chose undesirable,undesirable fac.,"(7.41e+03,2.03e+05]",FALSE,305
263,73,X3,1,1,0,0,ph,11,7,0.636363636,1695,5721,8.651898894,0,11011000111,0,0.136363636,0.636363636,4,3,3,7,0,-1,1,chose desirable,undesirable fac.,"(4.69e+03,7.41e+03]",FALSE,221
264,74,X3,0,1,1,0,ph,9,3,0.333333333,1544,4890,8.494947582,0,101100000,1,-0.166666667,0.666666667,6,-3,3,6,1,-1,-1,chose undesirable,undesirable fac.,"(4.69e+03,7.41e+03]",FALSE,490
265,75,X3,0,0,0,0,tv,10,1,0.1,1013,5456,8.6044712,0,1000000,1,-0.4,0.9,9,-8,8,9,1,-1,-1,chose undesirable,undesirable fac.,"(4.69e+03,7.41e+03]",FALSE,506
268,78,X3,1,0,1,0,tv,5,4,0.8,553,2345,7.760040681,0,10111,0,0.3,0.8,1,3,3,4,0,-1,1,chose desirable,undesirable fac.,"(2.08e+03,3.23e+03]",FALSE,145
269,79,X3,1,0,1,0,tv,12,6,0.5,784,6541,8.785845338,0,11100001110,0,0,0.5,6,0,0,6,0,-1,1,chose desirable,undesirable fac.,"(4.69e+03,7.41e+03]",FALSE,491
270,80,X3,0,0,1,1,ph,13,7,0.538461538,273,7033,8.858368636,0,10011100111,0,0.038461538,0.461538462,6,1,-1,6,0,1,-1,chose undesirable,desirable fac.,"(4.69e+03,7.41e+03]",FALSE,433
271,81,X3,1,0,0,1,ph,10,7,0.7,375,4997,8.516593011,0,1110011101,1,0.2,0.7,3,4,4,7,1,1,1,chose desirable,desirable fac.,"(4.69e+03,7.41e+03]",FALSE,47
272,82,X3,1,1,1,1,tv,6,5,0.833333333,159,2965,7.994632311,0,110111,1,0.333333333,0.833333333,1,4,4,5,1,1,1,chose desirable,desirable fac.,"(2.08e+03,3.23e+03]",FALSE,215
273,83,X3,1,0,0,1,ph,5,5,1,1240,2481,7.816416984,0,11111,1,0.5,1,0,5,5,5,1,1,1,chose desirable,desirable fac.,"(2.08e+03,3.23e+03]",FALSE,281
274,84,X3,0,0,1,1,ph,5,1,0.2,383,2474,7.813591553,0,1,0,-0.3,0.8,4,-3,3,4,0,1,-1,chose undesirable,desirable fac.,"(2.08e+03,3.23e+03]",FALSE,274
275,85,X3,0,0,0,0,tv,4,1,0.25,438,2080,7.640123173,0,100,1,-0.25,0.75,3,-2,2,3,1,-1,-1,chose undesirable,undesirable fac.,"(2.08e+03,3.23e+03]",FALSE,430
276,86,X3,1,1,1,1,tv,6,3,0.5,1638,2760,7.922985959,0,11100,1,0,0.5,3,0,0,3,1,1,1,chose desirable,desirable fac.,"(2.08e+03,3.23e+03]",FALSE,10
277,87,X3,0,1,1,0,ph,6,2,0.333333333,762,2930,7.982757702,0,100001,1,-0.166666667,0.666666667,4,-2,2,4,1,-1,-1,chose undesirable,undesirable fac.,"(2.08e+03,3.23e+03]",FALSE,180
278,88,X3,0,1,1,0,ph,8,3,0.375,1350,4272,8.359837381,0,1100001,1,-0.125,0.625,5,-2,2,5,1,-1,-1,chose undesirable,undesirable fac.,"(3.23e+03,4.69e+03]",FALSE,422
279,89,X3,1,1,1,1,tv,17,10,0.588235294,662,8877,9.091218941,0,1.01E+15,1,0.088235294,0.588235294,7,3,3,10,1,1,1,chose desirable,desirable fac.,"(7.41e+03,2.03e+05]",FALSE,77
281,91,X3,1,1,1,1,tv,18,12,0.666666667,1005,9383,9.14665482,0,1.11E+17,1,0.166666667,0.666666667,6,6,6,12,1,1,1,chose desirable,desirable fac.,"(7.41e+03,2.03e+05]",FALSE,33
282,92,X3,1,1,1,1,tv,8,6,0.75,201,3918,8.273336599,0,1110111,1,0.25,0.75,2,4,4,6,1,1,1,chose desirable,desirable fac.,"(3.23e+03,4.69e+03]",FALSE,68
283,93,X3,1,0,0,1,ph,5,3,0.6,2479,2559,7.847371836,0,11010,1,0.1,0.6,2,1,1,3,1,1,1,chose desirable,desirable fac.,"(2.08e+03,3.23e+03]",FALSE,359
284,94,X3,1,0,0,1,ph,9,7,0.777777778,1422,4639,8.442254105,0,110110111,1,0.277777778,0.777777778,2,5,5,7,1,1,1,chose desirable,desirable fac.,"(3.23e+03,4.69e+03]",FALSE,239
285,95,X3,0,0,0,0,tv,10,2,0.2,1006,5272,8.570165076,0,1001000000,1,-0.3,0.8,8,-6,6,8,1,-1,-1,chose undesirable,undesirable fac.,"(4.69e+03,7.41e+03]",FALSE,322
286,1,X4,1,1,0,0,ph,5,4,0.8,629,2223,7.706612914,0,11110,0,0.3,0.8,1,3,3,4,0,-1,1,chose desirable,undesirable fac.,"(2.08e+03,3.23e+03]",FALSE,23
287,2,X4,0,1,1,0,ph,6,3,0.5,1443,3037,8.018625465,0,110001,1,0,0.5,3,0,0,3,1,-1,-1,chose undesirable,undesirable fac.,"(2.08e+03,3.23e+03]",FALSE,287
288,3,X4,0,0,0,0,tv,6,0,0,468,3026,8.014996894,0,0,1,-0.5,1,6,-6,6,6,1,-1,-1,chose undesirable,undesirable fac.,"(2.08e+03,3.23e+03]",FALSE,276
289,4,X4,1,0,1,0,tv,8,4,0.5,2445,4341,8.375860015,2,1011010,0,0,0.5,4,0,0,4,0,-1,1,chose desirable,undesirable fac.,"(3.23e+03,4.69e+03]",FALSE,491
293,8,X4,1,1,1,1,tv,5,3,0.6,4345,2633,7.875879159,0,111,1,0.1,0.6,2,1,1,3,1,1,1,chose desirable,desirable fac.,"(2.08e+03,3.23e+03]",FALSE,433
294,9,X4,1,1,1,1,tv,5,4,0.8,1952,2679,7.89319887,2,11011,1,0.3,0.8,1,3,3,4,1,1,1,chose desirable,desirable fac.,"(2.08e+03,3.23e+03]",FALSE,479
296,11,X4,0,0,0,0,tv,6,1,0.166666667,995,2997,8.005367067,0,1,1,-0.333333333,0.833333333,5,-4,4,5,1,-1,-1,chose undesirable,undesirable fac.,"(2.08e+03,3.23e+03]",FALSE,247
297,12,X4,1,0,0,1,ph,11,8,0.727272727,781,5957,8.692322278,0,1011011111,1,0.227272727,0.727272727,3,5,5,8,1,1,1,chose desirable,desirable fac.,"(4.69e+03,7.41e+03]",FALSE,457
298,13,X4,1,1,1,1,tv,3,2,0.666666667,1018,1459,7.285506549,0,110,1,0.166666667,0.666666667,1,1,1,2,1,1,1,chose desirable,desirable fac.,"[1,2.08e+03]",FALSE,359
299,14,X4,1,1,1,1,tv,4,3,0.75,471,1834,7.514254653,2,1110,1,0.25,0.75,1,2,2,3,1,1,1,chose desirable,desirable fac.,"[1,2.08e+03]",FALSE,184
300,15,X4,0,1,0,1,tv,5,2,0.4,190,2543,7.841099765,0,1001,0,-0.1,0.6,3,-1,1,3,0,1,-1,chose undesirable,desirable fac.,"(2.08e+03,3.23e+03]",FALSE,343
301,16,X4,0,0,0,0,tv,7,1,0.142857143,478,3769,8.234564993,0,10000,1,-0.357142857,0.857142857,6,-5,5,6,1,-1,-1,chose undesirable,undesirable fac.,"(3.23e+03,4.69e+03]",FALSE,469
302,17,X4,0,1,1,0,ph,6,3,0.5,646,3192,8.068402959,0,100101,1,0,0.5,3,0,0,3,1,-1,-1,chose undesirable,undesirable fac.,"(2.08e+03,3.23e+03]",FALSE,442
303,18,X4,0,1,1,0,ph,10,5,0.5,514,5468,8.606668198,0,11101001,1,0,0.5,5,0,0,5,1,-1,-1,chose undesirable,undesirable fac.,"(4.69e+03,7.41e+03]",FALSE,518
304,19,X4,1,1,1,1,tv,29,21,0.724137931,863,15408,9.642642134,0,1.01E+28,1,0.224137931,0.724137931,8,13,13,21,1,1,1,chose desirable,desirable fac.,"(7.41e+03,2.03e+05]",FALSE,8
305,20,X4,1,0,0,1,ph,4,3,0.75,367,1872,7.534762657,0,111,1,0.25,0.75,1,2,2,3,1,1,1,chose desirable,desirable fac.,"[1,2.08e+03]",FALSE,222
306,21,X4,1,0,1,0,tv,10,4,0.4,775,5343,8.583542572,0,100110100,0,-0.1,0.4,6,-2,-2,4,0,-1,1,chose desirable,undesirable fac.,"(4.69e+03,7.41e+03]",FALSE,393
307,22,X4,0,1,1,0,ph,15,5,0.333333333,793,8138,9.004299729,7,1.01E+13,1,-0.166666667,0.666666667,10,-5,5,10,1,-1,-1,chose undesirable,undesirable fac.,"(7.41e+03,2.03e+05]",FALSE,438
308,23,X4,0,1,1,0,ph,4,0,0,861,2187,7.690286021,0,0,1,-0.5,1,4,-4,4,4,1,-1,-1,chose undesirable,undesirable fac.,"(2.08e+03,3.23e+03]",FALSE,537
309,24,X4,1,1,0,0,ph,10,6,0.6,655,5088,8.534640105,0,1011010110,0,0.1,0.6,4,2,2,6,0,-1,1,chose desirable,undesirable fac.,"(4.69e+03,7.41e+03]",FALSE,138
310,25,X4,0,0,0,0,tv,7,1,0.142857143,247,3488,8.157083785,0,1000000,1,-0.357142857,0.857142857,6,-5,5,6,1,-1,-1,chose undesirable,undesirable fac.,"(3.23e+03,4.69e+03]",FALSE,188
311,26,X4,1,1,0,0,ph,16,9,0.5625,682,8314,9.02569612,0,1.10E+15,0,0.0625,0.5625,7,2,2,9,0,-1,1,chose desirable,undesirable fac.,"(7.41e+03,2.03e+05]",FALSE,64
312,27,X4,0,0,0,0,tv,12,5,0.416666667,663,6112,8.718009331,0,1.10E+11,1,-0.083333333,0.583333333,7,-2,2,7,1,-1,-1,chose undesirable,undesirable fac.,"(4.69e+03,7.41e+03]",FALSE,62
313,28,X4,0,0,0,0,tv,8,2,0.25,669,3927,8.275631055,0,10001000,1,-0.25,0.75,6,-4,4,6,1,-1,-1,chose undesirable,undesirable fac.,"(3.23e+03,4.69e+03]",FALSE,77
314,29,X4,0,0,1,1,ph,17,7,0.411764706,1415,9192,9.12608882,0,1.10E+14,0,-0.088235294,0.588235294,10,-3,3,10,0,1,-1,chose undesirable,desirable fac.,"(7.41e+03,2.03e+05]",FALSE,392
315,30,X4,0,1,1,0,ph,5,1,0.2,727,2696,7.899524472,0,1,1,-0.3,0.8,4,-3,3,4,1,-1,-1,chose undesirable,undesirable fac.,"(2.08e+03,3.23e+03]",FALSE,496
316,31,X4,0,0,0,0,tv,15,5,0.333333333,1406,7777,8.958925939,0,1.01E+14,1,-0.166666667,0.666666667,10,-5,5,10,1,-1,-1,chose undesirable,undesirable fac.,"(7.41e+03,2.03e+05]",FALSE,77
317,32,X4,1,0,0,1,ph,5,3,0.6,95,2736,7.914252279,0,11010,1,0.1,0.6,2,1,1,3,1,1,1,chose desirable,desirable fac.,"(2.08e+03,3.23e+03]",FALSE,536
318,33,X4,0,1,0,1,tv,14,5,0.357142857,610,7480,8.919988071,0,1.00E+13,0,-0.142857143,0.642857143,9,-4,4,9,0,1,-1,chose undesirable,desirable fac.,"(7.41e+03,2.03e+05]",FALSE,330
319,34,X4,0,0,0,0,tv,15,4,0.266666667,821,7882,8.972336958,0,10101001,1,-0.233333333,0.733333333,11,-7,7,11,1,-1,-1,chose undesirable,undesirable fac.,"(7.41e+03,2.03e+05]",FALSE,182
320,35,X4,1,0,0,1,ph,9,6,0.666666667,1722,4937,8.504513138,0,11110110,1,0.166666667,0.666666667,3,3,3,6,1,1,1,chose desirable,desirable fac.,"(4.69e+03,7.41e+03]",FALSE,537
321,36,X4,1,0,0,1,ph,12,7,0.583333333,1259,6520,8.782629655,0,1011111100,1,0.083333333,0.583333333,5,2,2,7,1,1,1,chose desirable,desirable fac.,"(4.69e+03,7.41e+03]",FALSE,470
322,37,X4,0,1,1,0,ph,15,5,0.333333333,655,7862,8.969796306,0,1.01E+13,1,-0.166666667,0.666666667,10,-5,5,10,1,-1,-1,chose undesirable,undesirable fac.,"(7.41e+03,2.03e+05]",FALSE,162
323,38,X4,1,0,0,1,ph,17,12,0.705882353,5065,9036,9.108971878,0,1.10E+16,1,0.205882353,0.705882353,5,7,7,12,1,1,1,chose desirable,desirable fac.,"(7.41e+03,2.03e+05]",FALSE,236
324,39,X4,0,1,1,0,ph,9,2,0.222222222,472,4576,8.428580533,0,100010000,1,-0.277777778,0.777777778,7,-5,5,7,1,-1,-1,chose undesirable,undesirable fac.,"(3.23e+03,4.69e+03]",FALSE,176
325,40,X4,0,0,0,0,tv,11,5,0.454545455,1733,5792,8.664232934,0,101110001,1,-0.045454545,0.545454545,6,-1,1,6,1,-1,-1,chose undesirable,undesirable fac.,"(4.69e+03,7.41e+03]",FALSE,292
327,42,X4,1,1,1,1,tv,17,9,0.529411765,640,8824,9.085230561,0,1.11E+16,1,0.029411765,0.529411765,8,1,1,9,1,1,1,chose desirable,desirable fac.,"(7.41e+03,2.03e+05]",FALSE,24
329,44,X4,1,0,1,0,tv,4,3,0.75,23,2160,7.677863501,0,111,0,0.25,0.75,1,2,2,3,0,-1,1,chose desirable,undesirable fac.,"(2.08e+03,3.23e+03]",FALSE,510
330,45,X4,0,1,1,0,ph,14,6,0.428571429,1694,7368,8.904901578,0,1.11E+11,1,-0.071428571,0.571428571,8,-2,2,8,1,-1,-1,chose undesirable,undesirable fac.,"(4.69e+03,7.41e+03]",FALSE,218
331,46,X4,1,1,1,1,tv,25,15,0.6,538,13504,9.510741217,0,1.00E+24,1,0.1,0.6,10,5,5,15,1,1,1,chose desirable,desirable fac.,"(7.41e+03,2.03e+05]",FALSE,304
332,47,X4,1,0,0,1,ph,17,11,0.647058824,1737,9174,9.124128675,0,1.10E+16,1,0.147058824,0.647058824,6,5,5,11,1,1,1,chose desirable,desirable fac.,"(7.41e+03,2.03e+05]",FALSE,374
333,48,X4,1,0,0,1,ph,13,9,0.692307692,1406,6769,8.820108645,0,1.11E+11,1,0.192307692,0.692307692,4,5,5,9,1,1,1,chose desirable,desirable fac.,"(4.69e+03,7.41e+03]",FALSE,169
334,49,X4,0,1,0,1,tv,8,2,0.25,1081,3974,8.287528423,0,1010000,0,-0.25,0.75,6,-4,4,6,0,1,-1,chose undesirable,desirable fac.,"(3.23e+03,4.69e+03]",FALSE,124
335,50,X4,0,1,1,0,ph,4,0,0,742,1945,7.573017256,0,0,1,-0.5,1,4,-4,4,4,1,-1,-1,chose undesirable,undesirable fac.,"[1,2.08e+03]",FALSE,295
336,51,X4,1,1,1,1,tv,9,7,0.777777778,610,4500,8.411832676,0,101101111,1,0.277777778,0.777777778,2,5,5,7,1,1,1,chose desirable,desirable fac.,"(3.23e+03,4.69e+03]",FALSE,100
337,52,X4,0,1,1,0,ph,10,3,0.3,408,4982,8.513586696,0,10100010,1,-0.2,0.7,7,-4,4,7,1,-1,-1,chose undesirable,undesirable fac.,"(4.69e+03,7.41e+03]",FALSE,32
338,53,X4,1,0,0,1,ph,4,4,1,226,1727,7.454141078,0,1111,1,0.5,1,0,4,4,4,1,1,1,chose desirable,desirable fac.,"[1,2.08e+03]",FALSE,77
340,55,X4,1,0,1,0,tv,18,9,0.5,390,9439,9.152605321,0,1.11E+15,0,0,0.5,9,0,0,9,0,-1,1,chose desirable,undesirable fac.,"(7.41e+03,2.03e+05]",FALSE,89
341,56,X4,0,0,0,0,tv,10,3,0.3,1583,5048,8.526747404,0,1010100000,1,-0.2,0.7,7,-4,4,7,1,-1,-1,chose undesirable,undesirable fac.,"(4.69e+03,7.41e+03]",FALSE,98
343,58,X4,0,1,0,1,tv,17,5,0.294117647,1310,9048,9.110299018,0,1.10E+12,0,-0.205882353,0.705882353,12,-7,7,12,0,1,-1,chose undesirable,desirable fac.,"(7.41e+03,2.03e+05]",FALSE,248
344,59,X4,1,0,0,1,ph,17,9,0.529411765,377,8914,9.095378354,0,1.11E+16,1,0.029411765,0.529411765,8,1,1,9,1,1,1,chose desirable,desirable fac.,"(7.41e+03,2.03e+05]",FALSE,114
345,60,X4,0,0,0,0,tv,5,2,0.4,797,2287,7.734996194,0,11,1,-0.1,0.6,3,-1,1,3,1,-1,-1,chose undesirable,undesirable fac.,"(2.08e+03,3.23e+03]",FALSE,87
346,61,X4,0,1,1,0,ph,7,1,0.142857143,390,3812,8.245909265,0,100,1,-0.357142857,0.857142857,6,-5,5,6,1,-1,-1,chose undesirable,undesirable fac.,"(3.23e+03,4.69e+03]",FALSE,512
347,62,X4,1,1,1,1,tv,2,0,0,594,592,6.383506635,1,0,1,-0.5,0,2,-2,-2,0,1,1,1,chose desirable,desirable fac.,"[1,2.08e+03]",FALSE,42
348,63,X4,1,1,0,0,ph,9,2,0.222222222,951,4759,8.467792841,0,10100,0,-0.277777778,0.222222222,7,-5,-5,2,0,-1,1,chose desirable,undesirable fac.,"(4.69e+03,7.41e+03]",FALSE,359
350,65,X4,0,0,0,0,tv,11,5,0.454545455,519,5576,8.626226952,0,11001000011,1,-0.045454545,0.545454545,6,-1,1,6,1,-1,-1,chose undesirable,undesirable fac.,"(4.69e+03,7.41e+03]",FALSE,76
351,66,X4,0,0,0,0,tv,20,7,0.35,1582,10960,9.302007561,0,1.00E+14,1,-0.15,0.65,13,-6,6,13,1,-1,-1,chose undesirable,undesirable fac.,"(7.41e+03,2.03e+05]",FALSE,510
353,68,X4,0,1,1,0,ph,13,5,0.384615385,951,6679,8.806723555,0,1.11E+12,1,-0.115384615,0.615384615,8,-3,3,8,1,-1,-1,chose undesirable,undesirable fac.,"(4.69e+03,7.41e+03]",FALSE,79
354,69,X4,1,0,0,1,ph,3,1,0.333333333,366,1526,7.330405212,0,1,1,-0.166666667,0.333333333,2,-1,-1,1,1,1,1,chose desirable,desirable fac.,"[1,2.08e+03]",FALSE,426
356,71,X4,1,0,0,1,ph,5,3,0.6,776,2671,7.890208213,0,10101,1,0.1,0.6,2,1,1,3,1,1,1,chose desirable,desirable fac.,"(2.08e+03,3.23e+03]",FALSE,471
357,72,X4,0,0,0,0,tv,23,11,0.47826087,738,12147,9.404837505,0,1.01E+22,1,-0.02173913,0.52173913,12,-1,1,12,1,-1,-1,chose undesirable,undesirable fac.,"(7.41e+03,2.03e+05]",FALSE,47
358,73,X4,0,0,1,1,ph,6,3,0.5,1650,2839,7.951207156,0,100011,0,0,0.5,3,0,0,3,0,1,-1,chose undesirable,desirable fac.,"(2.08e+03,3.23e+03]",FALSE,89
360,75,X4,0,0,0,0,tv,12,3,0.25,2438,6246,8.739696538,1,1.00E+11,1,-0.25,0.75,9,-6,6,9,1,-1,-1,chose undesirable,undesirable fac.,"(4.69e+03,7.41e+03]",FALSE,196
363,78,X4,1,1,1,1,tv,5,4,0.8,382,2203,7.697575347,0,11110,1,0.3,0.8,1,3,3,4,1,1,1,chose desirable,desirable fac.,"(2.08e+03,3.23e+03]",FALSE,3
364,79,X4,1,1,1,1,tv,6,5,0.833333333,858,2938,7.985484357,0,11111,1,0.333333333,0.833333333,1,4,4,5,1,1,1,chose desirable,desirable fac.,"(2.08e+03,3.23e+03]",FALSE,188
365,80,X4,0,1,1,0,ph,11,2,0.181818182,462,5693,8.646992629,0,100000100,1,-0.318181818,0.818181818,9,-7,7,9,1,-1,-1,chose undesirable,undesirable fac.,"(4.69e+03,7.41e+03]",FALSE,193
366,81,X4,1,0,0,1,ph,13,7,0.538461538,192,6692,8.808668062,0,1.00E+12,1,0.038461538,0.538461538,6,1,1,7,1,1,1,chose desirable,desirable fac.,"(4.69e+03,7.41e+03]",FALSE,92
367,82,X4,0,0,0,0,tv,6,2,0.333333333,176,3205,8.072467369,0,101000,1,-0.166666667,0.666666667,4,-2,2,4,1,-1,-1,chose undesirable,undesirable fac.,"(2.08e+03,3.23e+03]",FALSE,455
368,83,X4,1,1,0,0,ph,26,14,0.538461538,12210,14250,9.564512186,0,1.10E+24,0,0.038461538,0.538461538,12,2,2,14,0,-1,1,chose desirable,undesirable fac.,"(7.41e+03,2.03e+05]",FALSE,500
369,84,X4,0,0,1,1,ph,6,1,0.166666667,1671,3240,8.083328609,0,100,0,-0.333333333,0.833333333,5,-4,4,5,0,1,-1,chose undesirable,desirable fac.,"(3.23e+03,4.69e+03]",FALSE,490
370,85,X4,1,0,1,0,tv,7,4,0.571428571,854,3391,8.128880142,0,101110,0,0.071428571,0.571428571,3,1,1,4,0,-1,1,chose desirable,undesirable fac.,"(3.23e+03,4.69e+03]",FALSE,91
371,86,X4,0,1,0,1,tv,5,2,0.4,1846,2360,7.766416898,0,11,0,-0.1,0.6,3,-1,1,3,0,1,-1,chose undesirable,desirable fac.,"(2.08e+03,3.23e+03]",FALSE,160
372,87,X4,1,0,0,1,ph,8,5,0.625,1620,4063,8.309676896,0,10001111,1,0.125,0.625,3,2,2,5,1,1,1,chose desirable,desirable fac.,"(3.23e+03,4.69e+03]",FALSE,213
373,88,X4,0,1,1,0,ph,7,2,0.285714286,999,3815,8.246695944,0,1001,1,-0.214285714,0.714285714,5,-3,3,5,1,-1,-1,chose undesirable,undesirable fac.,"(3.23e+03,4.69e+03]",FALSE,515
374,89,X4,0,0,0,0,tv,30,15,0.5,752,16056,9.68383789,0,1.01E+28,1,0,0.5,15,0,0,15,1,-1,-1,chose undesirable,undesirable fac.,"(7.41e+03,2.03e+05]",FALSE,106
375,90,X4,1,1,0,0,ph,7,5,0.714285714,1297,3368,8.122074375,0,111101,0,0.214285714,0.714285714,2,3,3,5,0,-1,1,chose desirable,undesirable fac.,"(3.23e+03,4.69e+03]",FALSE,68
376,91,X4,0,0,0,0,tv,16,4,0.25,794,8392,9.03503415,0,1.01E+15,1,-0.25,0.75,12,-8,8,12,1,-1,-1,chose undesirable,undesirable fac.,"(7.41e+03,2.03e+05]",FALSE,142
377,92,X4,1,0,1,0,tv,10,6,0.6,1791,5384,8.591186871,0,1110101010,0,0.1,0.6,4,2,2,6,0,-1,1,chose desirable,undesirable fac.,"(4.69e+03,7.41e+03]",FALSE,434
378,93,X4,0,1,1,0,ph,4,1,0.25,1125,1959,7.580189418,0,10,1,-0.25,0.75,3,-2,2,3,1,-1,-1,chose undesirable,undesirable fac.,"[1,2.08e+03]",FALSE,309
379,94,X4,0,0,1,1,ph,7,3,0.428571429,5855,3415,8.135932772,0,1100001,0,-0.071428571,0.571428571,4,-1,1,4,0,1,-1,chose undesirable,desirable fac.,"(3.23e+03,4.69e+03]",FALSE,115
380,95,X4,1,0,1,0,tv,9,7,0.777777778,765,4464,8.403800504,0,100111111,0,0.277777778,0.777777778,2,5,5,7,0,-1,1,chose desirable,undesirable fac.,"(3.23e+03,4.69e+03]",FALSE,64
381,1,X5,1,0,0,1,ph,3,3,1,418,1473,7.295056416,0,111,1,0.5,1,0,3,3,3,1,1,1,chose desirable,desirable fac.,"[1,2.08e+03]",FALSE,373
382,2,X5,0,1,1,0,ph,6,2,0.333333333,912,3165,8.059908335,0,100001,1,-0.166666667,0.666666667,4,-2,2,4,1,-1,-1,chose undesirable,undesirable fac.,"(2.08e+03,3.23e+03]",FALSE,415
383,3,X5,1,1,1,1,tv,6,4,0.666666667,494,2808,7.940227765,0,11110,1,0.166666667,0.666666667,2,2,2,4,1,1,1,chose desirable,desirable fac.,"(2.08e+03,3.23e+03]",FALSE,58
384,4,X5,0,1,0,1,tv,10,2,0.2,357,5160,8.548691858,0,1000000001,0,-0.3,0.8,8,-6,6,8,0,1,-1,chose undesirable,desirable fac.,"(4.69e+03,7.41e+03]",FALSE,210
388,8,X5,1,0,1,0,tv,4,2,0.5,854,1995,7.598399329,0,1100,0,0,0.5,2,0,0,2,0,-1,1,chose desirable,undesirable fac.,"[1,2.08e+03]",FALSE,345
391,11,X5,1,1,1,1,tv,6,4,0.666666667,930,3179,8.064321961,0,101110,1,0.166666667,0.666666667,2,2,2,4,1,1,1,chose desirable,desirable fac.,"(2.08e+03,3.23e+03]",FALSE,429
392,12,X5,0,1,1,0,ph,6,1,0.166666667,437,3122,8.046229101,0,10000,1,-0.333333333,0.833333333,5,-4,4,5,1,-1,-1,chose undesirable,undesirable fac.,"(2.08e+03,3.23e+03]",FALSE,372
393,13,X5,1,1,1,1,tv,6,4,0.666666667,873,2836,7.950149888,0,11110,1,0.166666667,0.666666667,2,2,2,4,1,1,1,chose desirable,desirable fac.,"(2.08e+03,3.23e+03]",FALSE,86
394,14,X5,1,1,1,1,tv,5,4,0.8,438,2606,7.865571758,2,1111,1,0.3,0.8,1,3,3,4,1,1,1,chose desirable,desirable fac.,"(2.08e+03,3.23e+03]",FALSE,406
395,15,X5,1,1,1,1,tv,8,5,0.625,407,4032,8.30201781,0,1101110,1,0.125,0.625,3,2,2,5,1,1,1,chose desirable,desirable fac.,"(3.23e+03,4.69e+03]",FALSE,182
396,16,X5,1,0,1,0,tv,7,5,0.714285714,463,3841,8.253488028,0,11111,0,0.214285714,0.714285714,2,3,3,5,0,-1,1,chose desirable,undesirable fac.,"(3.23e+03,4.69e+03]",FALSE,541
397,17,X5,1,0,0,1,ph,11,5,0.454545455,192,5800,8.665613197,1,10010101100,1,-0.045454545,0.454545455,6,-1,-1,5,1,1,1,chose desirable,desirable fac.,"(4.69e+03,7.41e+03]",FALSE,300
398,18,X5,0,1,1,0,ph,4,1,0.25,155,1820,7.50659178,0,1,1,-0.25,0.75,3,-2,2,3,1,-1,-1,chose undesirable,undesirable fac.,"[1,2.08e+03]",FALSE,170
399,19,X5,0,0,0,0,tv,18,5,0.277777778,782,9472,9.156095357,0,1.10E+15,1,-0.222222222,0.722222222,13,-8,8,13,1,-1,-1,chose undesirable,undesirable fac.,"(7.41e+03,2.03e+05]",FALSE,122
400,20,X5,0,1,1,0,ph,3,1,0.333333333,1127,1193,7.084226422,0,1,1,-0.166666667,0.666666667,2,-1,1,2,1,-1,-1,chose undesirable,undesirable fac.,"[1,2.08e+03]",FALSE,93
401,21,X5,0,0,0,0,tv,6,0,0,569,3263,8.090402297,0,0,1,-0.5,1,6,-6,6,6,1,-1,-1,chose undesirable,undesirable fac.,"(3.23e+03,4.69e+03]",FALSE,513
402,22,X5,1,0,0,1,ph,29,15,0.517241379,988,15945,9.676900579,14,1.00E+28,1,0.017241379,0.517241379,14,1,1,15,1,1,1,chose desirable,desirable fac.,"(7.41e+03,2.03e+05]",FALSE,545
403,23,X5,0,0,1,1,ph,11,5,0.454545455,36,5910,8.68440111,0,11100100001,0,-0.045454545,0.545454545,6,-1,1,6,0,1,-1,chose undesirable,desirable fac.,"(4.69e+03,7.41e+03]",FALSE,410
404,24,X5,1,0,0,1,ph,13,9,0.692307692,432,6722,8.813141008,0,1.01E+12,1,0.192307692,0.692307692,4,5,5,9,1,1,1,chose desirable,desirable fac.,"(4.69e+03,7.41e+03]",FALSE,122
405,25,X5,1,0,1,0,tv,14,7,0.5,232,7696,8.948455992,0,1100011111,0,0,0.5,7,0,0,7,0,-1,1,chose desirable,undesirable fac.,"(7.41e+03,2.03e+05]",FALSE,546
406,26,X5,1,0,0,1,ph,26,14,0.538461538,776,14249,9.564442008,0,1.00E+23,1,0.038461538,0.538461538,12,2,2,14,1,1,1,chose desirable,desirable fac.,"(7.41e+03,2.03e+05]",FALSE,499
407,27,X5,1,1,1,1,tv,10,6,0.6,15,4992,8.51559191,0,101001111,1,0.1,0.6,4,2,2,6,1,1,1,chose desirable,desirable fac.,"(4.69e+03,7.41e+03]",FALSE,42
408,28,X5,0,0,0,0,tv,6,1,0.166666667,808,2866,7.960672608,0,10000,1,-0.333333333,0.833333333,5,-4,4,5,1,-1,-1,chose undesirable,undesirable fac.,"(2.08e+03,3.23e+03]",FALSE,116
409,29,X5,1,0,0,1,ph,14,9,0.642857143,1766,7304,8.896177422,0,1.11E+12,1,0.142857143,0.642857143,5,4,4,9,1,1,1,chose desirable,desirable fac.,"(4.69e+03,7.41e+03]",FALSE,154
410,30,X5,0,1,1,0,ph,8,3,0.375,614,4344,8.376550862,0,100101,1,-0.125,0.625,5,-2,2,5,1,-1,-1,chose undesirable,undesirable fac.,"(3.23e+03,4.69e+03]",FALSE,494
411,31,X5,0,1,0,1,tv,13,4,0.307692308,736,7061,8.862341964,0,10100101,0,-0.192307692,0.692307692,9,-5,5,9,0,1,-1,chose undesirable,desirable fac.,"(4.69e+03,7.41e+03]",FALSE,461
412,32,X5,0,1,1,0,ph,6,1,0.166666667,2344,2823,7.945555428,0,100,1,-0.333333333,0.833333333,5,-4,4,5,1,-1,-1,chose undesirable,undesirable fac.,"(2.08e+03,3.23e+03]",FALSE,73
413,33,X5,0,0,0,0,tv,11,4,0.363636364,479,5584,8.627660644,0,110010100,1,-0.136363636,0.636363636,7,-3,3,7,1,-1,-1,chose undesirable,undesirable fac.,"(4.69e+03,7.41e+03]",FALSE,84
414,34,X5,0,0,0,0,tv,37,17,0.459459459,904,19896,9.898273985,0,1.00E+36,1,-0.040540541,0.540540541,20,-3,3,20,1,-1,-1,chose undesirable,undesirable fac.,"(7.41e+03,2.03e+05]",FALSE,96
415,35,X5,1,0,0,1,ph,18,12,0.666666667,1559,9476,9.156517565,0,1.11E+17,1,0.166666667,0.666666667,6,6,6,12,1,1,1,chose desirable,desirable fac.,"(7.41e+03,2.03e+05]",FALSE,126
416,36,X5,1,0,0,1,ph,16,11,0.6875,719,8639,9.064042114,0,1.10E+15,1,0.1875,0.6875,5,6,6,11,1,1,1,chose desirable,desirable fac.,"(7.41e+03,2.03e+05]",FALSE,389
417,37,X5,1,0,0,1,ph,9,7,0.777777778,134689,4450,8.400659375,0,111011011,1,0.277777778,0.777777778,2,5,5,7,1,1,1,chose desirable,desirable fac.,"(3.23e+03,4.69e+03]",FALSE,50
418,38,X5,0,0,1,1,ph,15,7,0.466666667,1476,7886,8.972844314,0,1.00E+13,0,-0.033333333,0.533333333,8,-1,1,8,0,1,-1,chose undesirable,desirable fac.,"(7.41e+03,2.03e+05]",FALSE,186
419,39,X5,1,0,0,1,ph,14,10,0.714285714,478,7168,8.877381955,0,1.00E+13,1,0.214285714,0.714285714,4,6,6,10,1,1,1,chose desirable,desirable fac.,"(4.69e+03,7.41e+03]",FALSE,18
420,40,X5,0,0,0,0,tv,9,3,0.333333333,1598,4743,8.464425126,0,10010001,1,-0.166666667,0.666666667,6,-3,3,6,1,-1,-1,chose undesirable,undesirable fac.,"(4.69e+03,7.41e+03]",FALSE,343
422,42,X5,0,0,0,0,tv,6,1,0.166666667,242,2844,7.952966791,0,1,1,-0.333333333,0.833333333,5,-4,4,5,1,-1,-1,chose undesirable,undesirable fac.,"(2.08e+03,3.23e+03]",FALSE,94
424,44,X5,0,0,0,0,tv,5,2,0.4,17,2495,7.822044008,0,101,1,-0.1,0.6,3,-1,1,3,1,-1,-1,chose undesirable,undesirable fac.,"(2.08e+03,3.23e+03]",FALSE,295
425,45,X5,0,0,1,1,ph,8,4,0.5,319,4232,8.350429974,0,11000101,0,0,0.5,4,0,0,4,0,1,-1,chose undesirable,desirable fac.,"(3.23e+03,4.69e+03]",FALSE,382
426,46,X5,0,0,0,0,tv,18,7,0.388888889,627,9528,9.161990111,0,1.01E+15,1,-0.111111111,0.611111111,11,-4,4,11,1,-1,-1,chose undesirable,undesirable fac.,"(7.41e+03,2.03e+05]",FALSE,178
427,47,X5,0,1,1,0,ph,15,4,0.266666667,1556,7883,8.972463821,0,1.00E+12,1,-0.233333333,0.733333333,11,-7,7,11,1,-1,-1,chose undesirable,undesirable fac.,"(7.41e+03,2.03e+05]",FALSE,183
428,48,X5,1,0,0,1,ph,8,7,0.875,1583,3959,8.283746747,0,11111110,1,0.375,0.875,1,6,6,7,1,1,1,chose desirable,desirable fac.,"(3.23e+03,4.69e+03]",FALSE,109
429,49,X5,0,0,0,0,tv,8,3,0.375,608,3926,8.275376375,0,1100100,1,-0.125,0.625,5,-2,2,5,1,-1,-1,chose undesirable,undesirable fac.,"(3.23e+03,4.69e+03]",FALSE,76
430,50,X5,1,0,0,1,ph,9,6,0.666666667,691,4697,8.454679286,0,101001111,1,0.166666667,0.666666667,3,3,3,6,1,1,1,chose desirable,desirable fac.,"(4.69e+03,7.41e+03]",FALSE,297
431,51,X5,1,0,1,0,tv,9,6,0.666666667,499,4510,8.414052432,0,100111110,0,0.166666667,0.666666667,3,3,3,6,0,-1,1,chose desirable,undesirable fac.,"(3.23e+03,4.69e+03]",FALSE,110
432,52,X5,1,0,0,1,ph,15,9,0.6,97,7793,8.960981174,0,1.01E+12,1,0.1,0.6,6,3,3,9,1,1,1,chose desirable,desirable fac.,"(7.41e+03,2.03e+05]",FALSE,93
433,53,X5,1,0,0,1,ph,13,8,0.615384615,371,7014,8.855663431,0,11011001111,1,0.115384615,0.615384615,5,3,3,8,1,1,1,chose desirable,desirable fac.,"(4.69e+03,7.41e+03]",FALSE,414
435,55,X5,1,1,1,1,tv,13,11,0.846153846,319,6694,8.808966882,0,1.11E+12,1,0.346153846,0.846153846,2,9,9,11,1,1,1,chose desirable,desirable fac.,"(4.69e+03,7.41e+03]",FALSE,94
436,56,X5,1,1,1,1,tv,6,4,0.666666667,4103,2992,8.003697339,0,11110,1,0.166666667,0.666666667,2,2,2,4,1,1,1,chose desirable,desirable fac.,"(2.08e+03,3.23e+03]",FALSE,242
438,58,X5,0,0,0,0,tv,26,9,0.346153846,1006,14200,9.560997244,0,1.10E+25,1,-0.153846154,0.653846154,17,-8,8,17,1,-1,-1,chose undesirable,undesirable fac.,"(7.41e+03,2.03e+05]",FALSE,450
439,59,X5,1,0,0,1,ph,9,6,0.666666667,1024,4609,8.435766193,0,1011111,1,0.166666667,0.666666667,3,3,3,6,1,1,1,chose desirable,desirable fac.,"(3.23e+03,4.69e+03]",FALSE,209
440,60,X5,1,1,1,1,tv,10,5,0.5,859,5264,8.568646473,0,110010110,1,0,0.5,5,0,0,5,1,1,1,chose desirable,desirable fac.,"(4.69e+03,7.41e+03]",FALSE,314
441,61,X5,0,0,1,1,ph,9,3,0.333333333,494,4479,8.407155086,0,100010001,0,-0.166666667,0.666666667,6,-3,3,6,0,1,-1,chose undesirable,desirable fac.,"(3.23e+03,4.69e+03]",FALSE,79
442,62,X5,1,1,1,1,tv,2,1,0.5,483,825,6.715383386,1,1,1,0,0.5,1,0,0,1,1,1,1,chose desirable,desirable fac.,"[1,2.08e+03]",FALSE,275
443,63,X5,0,1,1,0,ph,11,3,0.272727273,599,5894,8.681690163,0,1010010000,1,-0.227272727,0.727272727,8,-5,5,8,1,-1,-1,chose undesirable,undesirable fac.,"(4.69e+03,7.41e+03]",FALSE,394
444,64,X5,1,1,1,1,tv,8,6,0.75,743,4344,8.376550862,0,11010111,1,0.25,0.75,2,4,4,6,1,1,1,chose desirable,desirable fac.,"(3.23e+03,4.69e+03]",FALSE,494
445,65,X5,0,0,0,0,tv,12,3,0.25,894,6279,8.744966011,0,1.10E+11,1,-0.25,0.75,9,-6,6,9,1,-1,-1,chose undesirable,undesirable fac.,"(4.69e+03,7.41e+03]",FALSE,229
446,66,X5,1,1,1,1,tv,12,9,0.75,1038,6375,8.76013937,0,1.11E+11,1,0.25,0.75,3,6,6,9,1,1,1,chose desirable,desirable fac.,"(4.69e+03,7.41e+03]",FALSE,325
448,68,X5,1,0,0,1,ph,12,8,0.666666667,1635,6561,8.788898309,0,1.01E+11,1,0.166666667,0.666666667,4,4,4,8,1,1,1,chose desirable,desirable fac.,"(4.69e+03,7.41e+03]",FALSE,511
449,69,X5,1,0,0,1,ph,4,3,0.75,553,2122,7.660114319,0,111,1,0.25,0.75,1,2,2,3,1,1,1,chose desirable,desirable fac.,"(2.08e+03,3.23e+03]",FALSE,472
450,70,X5,0,1,1,0,ph,14,4,0.285714286,506,7416,8.911395107,0,10100010001,1,-0.214285714,0.714285714,10,-6,6,10,1,-1,-1,chose undesirable,undesirable fac.,"(7.41e+03,2.03e+05]",FALSE,266
451,71,X5,1,0,0,1,ph,6,3,0.5,431,2800,7.937374696,0,10110,1,0,0.5,3,0,0,3,1,1,1,chose desirable,desirable fac.,"(2.08e+03,3.23e+03]",FALSE,50
452,72,X5,0,0,0,0,tv,10,1,0.1,607,4956,8.508354243,0,100000000,1,-0.4,0.9,9,-8,8,9,1,-1,-1,chose undesirable,undesirable fac.,"(4.69e+03,7.41e+03]",FALSE,6
453,73,X5,0,1,1,0,ph,5,0,0,1570,2354,7.763871288,0,0,1,-0.5,1,5,-5,5,5,1,-1,-1,chose undesirable,undesirable fac.,"(2.08e+03,3.23e+03]",FALSE,154
454,74,X5,0,1,1,0,ph,14,4,0.285714286,103,7360,8.903815212,0,1.11E+11,1,-0.214285714,0.714285714,10,-6,6,10,1,-1,-1,chose undesirable,undesirable fac.,"(4.69e+03,7.41e+03]",FALSE,210
455,75,X5,1,1,1,1,tv,11,7,0.636363636,2368,5764,8.659386957,0,1110111100,1,0.136363636,0.636363636,4,3,3,7,1,1,1,chose desirable,desirable fac.,"(4.69e+03,7.41e+03]",FALSE,264
458,78,X5,1,1,1,1,tv,5,4,0.8,507,2536,7.838343316,0,10111,1,0.3,0.8,1,3,3,4,1,1,1,chose desirable,desirable fac.,"(2.08e+03,3.23e+03]",FALSE,336
459,79,X5,0,1,0,1,tv,14,5,0.357142857,962,7268,8.89123643,0,1.01E+13,0,-0.142857143,0.642857143,9,-4,4,9,0,1,-1,chose undesirable,desirable fac.,"(4.69e+03,7.41e+03]",FALSE,118
460,80,X5,0,0,1,1,ph,16,7,0.4375,84,8539,9.052399184,0,1.10E+14,0,-0.0625,0.5625,9,-2,2,9,0,1,-1,chose undesirable,desirable fac.,"(7.41e+03,2.03e+05]",FALSE,289
461,81,X5,1,1,0,0,ph,5,5,1,144,2665,7.887959337,0,11111,0,0.5,1,0,5,5,5,0,-1,1,chose desirable,undesirable fac.,"(2.08e+03,3.23e+03]",FALSE,465
462,82,X5,1,1,1,1,tv,12,7,0.583333333,39,6084,8.713417653,0,1.10E+11,1,0.083333333,0.583333333,5,2,2,7,1,1,1,chose desirable,desirable fac.,"(4.69e+03,7.41e+03]",FALSE,34
463,83,X5,0,0,1,1,ph,13,4,0.307692308,985,6887,8.837390856,0,1.00E+12,0,-0.192307692,0.692307692,9,-5,5,9,0,1,-1,chose undesirable,desirable fac.,"(4.69e+03,7.41e+03]",FALSE,287
464,84,X5,1,0,0,1,ph,4,4,1,767,1672,7.421775794,0,1111,1,0.5,1,0,4,4,4,1,1,1,chose desirable,desirable fac.,"[1,2.08e+03]",FALSE,22
465,85,X5,1,1,1,1,tv,7,5,0.714285714,743,3311,8.105005538,0,11111,1,0.214285714,0.714285714,2,3,3,5,1,1,1,chose desirable,desirable fac.,"(3.23e+03,4.69e+03]",FALSE,11
466,86,X5,1,1,1,1,tv,5,4,0.8,1877,2288,7.735433352,0,11110,1,0.3,0.8,1,3,3,4,1,1,1,chose desirable,desirable fac.,"(2.08e+03,3.23e+03]",FALSE,88
467,87,X5,0,0,1,1,ph,5,2,0.4,1055,2726,7.910590612,0,101,0,-0.1,0.6,3,-1,1,3,0,1,-1,chose undesirable,desirable fac.,"(2.08e+03,3.23e+03]",FALSE,526
468,88,X5,1,0,0,1,ph,10,5,0.5,1053,4961,8.509362612,0,1101001100,1,0,0.5,5,0,0,5,1,1,1,chose desirable,desirable fac.,"(4.69e+03,7.41e+03]",FALSE,11
469,89,X5,1,0,1,0,tv,9,7,0.777777778,502,4906,8.498214225,0,111011011,0,0.277777778,0.777777778,2,5,5,7,0,-1,1,chose desirable,undesirable fac.,"(4.69e+03,7.41e+03]",FALSE,506
470,90,X5,1,0,0,1,ph,16,11,0.6875,1348,8776,9.079776002,0,1.00E+15,1,0.1875,0.6875,5,6,6,11,1,1,1,chose desirable,desirable fac.,"(7.41e+03,2.03e+05]",FALSE,526
471,91,X5,1,1,1,1,tv,24,11,0.458333333,2931,12834,9.459853178,0,1.11E+22,1,-0.041666667,0.458333333,13,-2,-2,11,1,1,1,chose desirable,desirable fac.,"(7.41e+03,2.03e+05]",FALSE,184
472,92,X5,0,0,0,0,tv,7,2,0.285714286,30,3368,8.122074375,0,1001,1,-0.214285714,0.714285714,5,-3,3,5,1,-1,-1,chose undesirable,undesirable fac.,"(3.23e+03,4.69e+03]",FALSE,68
473,93,X5,1,0,0,1,ph,4,2,0.5,1542,1911,7.555381944,0,1001,1,0,0.5,2,0,0,2,1,1,1,chose desirable,desirable fac.,"[1,2.08e+03]",FALSE,261
474,94,X5,1,1,0,0,ph,12,5,0.416666667,3047,6137,8.722091302,0,1110010010,0,-0.083333333,0.416666667,7,-2,-2,5,0,-1,1,chose desirable,undesirable fac.,"(4.69e+03,7.41e+03]",FALSE,87
475,95,X5,1,1,1,1,tv,14,10,0.714285714,686,7560,8.930626469,0,1.10E+13,1,0.214285714,0.714285714,4,6,6,10,1,1,1,chose desirable,desirable fac.,"(7.41e+03,2.03e+05]",FALSE,410
476,1,X6,0,1,1,0,ph,5,2,0.4,90,2452,7.804659297,0,10010,1,-0.1,0.6,3,-1,1,3,1,-1,-1,chose undesirable,undesirable fac.,"(2.08e+03,3.23e+03]",FALSE,252
477,2,X6,1,0,0,1,ph,6,5,0.833333333,7,2991,8.003363059,0,111110,1,0.333333333,0.833333333,1,4,4,5,1,1,1,chose desirable,desirable fac.,"(2.08e+03,3.23e+03]",FALSE,241
478,3,X6,0,0,0,0,tv,7,3,0.428571429,611,3335,8.112227958,0,1011,1,-0.071428571,0.571428571,4,-1,1,4,1,-1,-1,chose undesirable,undesirable fac.,"(3.23e+03,4.69e+03]",FALSE,35
479,4,X6,1,0,1,0,tv,19,8,0.421052632,1187,10265,9.236495329,0,1.10E+18,0,-0.078947368,0.421052632,11,-3,-3,8,0,-1,1,chose desirable,undesirable fac.,"(7.41e+03,2.03e+05]",FALSE,365
483,8,X6,1,0,1,0,tv,4,2,0.5,90,1973,7.587310506,0,1100,0,0,0.5,2,0,0,2,0,-1,1,chose desirable,undesirable fac.,"[1,2.08e+03]",FALSE,323
486,11,X6,0,1,0,1,tv,13,5,0.384615385,1292,6741,8.815963561,0,10111000010,0,-0.115384615,0.615384615,8,-3,3,8,0,1,-1,chose undesirable,desirable fac.,"(4.69e+03,7.41e+03]",FALSE,141
487,12,X6,0,1,1,0,ph,7,2,0.285714286,477,3761,8.232440158,0,100100,1,-0.214285714,0.714285714,5,-3,3,5,1,-1,-1,chose undesirable,undesirable fac.,"(3.23e+03,4.69e+03]",FALSE,461
488,13,X6,1,1,1,1,tv,7,4,0.571428571,805,3810,8.245384468,0,1111,1,0.071428571,0.571428571,3,1,1,4,1,1,1,chose desirable,desirable fac.,"(3.23e+03,4.69e+03]",FALSE,510
489,14,X6,1,0,1,0,tv,8,4,0.5,494,4281,8.361941906,4,11010010,0,0,0.5,4,0,0,4,0,-1,1,chose desirable,undesirable fac.,"(3.23e+03,4.69e+03]",FALSE,431
490,15,X6,0,1,0,1,tv,5,1,0.2,102,2344,7.759614151,0,1,0,-0.3,0.8,4,-3,3,4,0,1,-1,chose undesirable,desirable fac.,"(2.08e+03,3.23e+03]",FALSE,144
491,16,X6,1,1,1,1,tv,11,6,0.545454545,423,6032,8.70483391,0,10001111010,1,0.045454545,0.545454545,5,1,1,6,1,1,1,chose desirable,desirable fac.,"(4.69e+03,7.41e+03]",FALSE,532
492,17,X6,1,0,0,1,ph,5,3,0.6,36,2320,7.749322465,0,10101,1,0.1,0.6,2,1,1,3,1,1,1,chose desirable,desirable fac.,"(2.08e+03,3.23e+03]",FALSE,120
493,18,X6,1,0,0,1,ph,5,4,0.8,611,2324,7.751045118,0,1111,1,0.3,0.8,1,3,3,4,1,1,1,chose desirable,desirable fac.,"(2.08e+03,3.23e+03]",FALSE,124
494,19,X6,1,1,1,1,tv,19,13,0.684210526,661,9968,9.207135241,0,1.11E+15,1,0.184210526,0.684210526,6,7,7,13,1,1,1,chose desirable,desirable fac.,"(7.41e+03,2.03e+05]",FALSE,68
495,20,X6,1,0,0,1,ph,4,3,0.75,591,2001,7.601402335,0,111,1,0.25,0.75,1,2,2,3,1,1,1,chose desirable,desirable fac.,"[1,2.08e+03]",FALSE,351
496,21,X6,1,1,1,1,tv,6,5,0.833333333,272,3040,8.019612794,0,110111,1,0.333333333,0.833333333,1,4,4,5,1,1,1,chose desirable,desirable fac.,"(2.08e+03,3.23e+03]",FALSE,290
497,22,X6,1,0,0,1,ph,11,8,0.727272727,1603,5668,8.642591601,5,1110110111,1,0.227272727,0.727272727,3,5,5,8,1,1,1,chose desirable,desirable fac.,"(4.69e+03,7.41e+03]",FALSE,168
498,23,X6,0,1,1,0,ph,15,4,0.266666667,209,7714,8.950792139,0,1.01E+12,1,-0.233333333,0.733333333,11,-7,7,11,1,-1,-1,chose undesirable,undesirable fac.,"(7.41e+03,2.03e+05]",FALSE,14
499,24,X6,0,1,1,0,ph,5,1,0.2,415,2304,7.742402022,0,1,1,-0.3,0.8,4,-3,3,4,1,-1,-1,chose undesirable,undesirable fac.,"(2.08e+03,3.23e+03]",FALSE,104
500,25,X6,1,1,1,1,tv,7,6,0.857142857,471,3823,8.248790734,0,1111011,1,0.357142857,0.857142857,1,5,5,6,1,1,1,chose desirable,desirable fac.,"(3.23e+03,4.69e+03]",FALSE,523
501,26,X6,0,1,1,0,ph,16,6,0.375,747,8353,9.030376035,0,1.10E+15,1,-0.125,0.625,10,-4,4,10,1,-1,-1,chose undesirable,undesirable fac.,"(7.41e+03,2.03e+05]",FALSE,103
502,27,X6,0,0,0,0,tv,9,3,0.333333333,623,4688,8.452761331,0,101001,1,-0.166666667,0.666666667,6,-3,3,6,1,-1,-1,chose undesirable,undesirable fac.,"(3.23e+03,4.69e+03]",FALSE,288
503,28,X6,0,0,0,0,tv,12,4,0.333333333,607,6052,8.708144075,0,1.01E+11,1,-0.166666667,0.666666667,8,-4,4,8,1,-1,-1,chose undesirable,undesirable fac.,"(4.69e+03,7.41e+03]",FALSE,2
504,29,X6,1,0,0,1,ph,18,10,0.555555556,2511,9552,9.164505836,0,1.01E+17,1,0.055555556,0.555555556,8,2,2,10,1,1,1,chose desirable,desirable fac.,"(7.41e+03,2.03e+05]",FALSE,202
505,30,X6,1,0,0,1,ph,6,4,0.666666667,1966,3232,8.08085642,0,101011,1,0.166666667,0.666666667,2,2,2,4,1,1,1,chose desirable,desirable fac.,"(3.23e+03,4.69e+03]",FALSE,482
506,31,X6,1,0,1,0,tv,15,9,0.6,660,8163,9.007367027,0,1.11E+13,0,0.1,0.6,6,3,3,9,0,-1,1,chose desirable,undesirable fac.,"(7.41e+03,2.03e+05]",FALSE,463
507,32,X6,1,0,0,1,ph,14,9,0.642857143,3927,7688,8.947415951,0,1.11E+12,1,0.142857143,0.642857143,5,4,4,9,1,1,1,chose desirable,desirable fac.,"(7.41e+03,2.03e+05]",FALSE,538
508,33,X6,1,1,1,1,tv,8,6,0.75,538,4125,8.324821299,0,11110101,1,0.25,0.75,2,4,4,6,1,1,1,chose desirable,desirable fac.,"(3.23e+03,4.69e+03]",FALSE,275
509,34,X6,1,1,1,1,tv,21,15,0.714285714,967,11208,9.324383088,0,1.10E+20,1,0.214285714,0.714285714,6,9,9,15,1,1,1,chose desirable,desirable fac.,"(7.41e+03,2.03e+05]",FALSE,208
510,35,X6,0,1,1,0,ph,48,21,0.4375,1347,26395,10.18092988,0,1.00E+46,1,-0.0625,0.5625,27,-6,6,27,1,-1,-1,chose undesirable,undesirable fac.,"(7.41e+03,2.03e+05]",FALSE,545
511,36,X6,0,1,1,0,ph,16,6,0.375,735,8329,9.02749868,0,1.01E+15,1,-0.125,0.625,10,-4,4,10,1,-1,-1,chose undesirable,undesirable fac.,"(7.41e+03,2.03e+05]",FALSE,79
512,37,X6,1,0,0,1,ph,7,5,0.714285714,755,3687,8.212568398,0,1101110,1,0.214285714,0.714285714,2,3,3,5,1,1,1,chose desirable,desirable fac.,"(3.23e+03,4.69e+03]",FALSE,387
513,38,X6,1,1,0,0,ph,34,16,0.470588235,2442,18376,9.818800744,0,1.10E+33,0,-0.029411765,0.470588235,18,-2,-2,16,0,-1,1,chose desirable,undesirable fac.,"(7.41e+03,2.03e+05]",FALSE,226
514,39,X6,1,1,0,0,ph,7,7,1,198,3311,8.105005538,0,1111111,0,0.5,1,0,7,7,7,0,-1,1,chose desirable,undesirable fac.,"(3.23e+03,4.69e+03]",FALSE,11
515,40,X6,0,0,0,0,tv,13,6,0.461538462,1295,7032,8.858226439,0,1101101100,1,-0.038461538,0.538461538,7,-1,1,7,1,-1,-1,chose undesirable,undesirable fac.,"(4.69e+03,7.41e+03]",FALSE,432
517,42,X6,1,0,1,0,tv,10,7,0.7,491,5379,8.590257762,0,1111100110,0,0.2,0.7,3,4,4,7,0,-1,1,chose desirable,undesirable fac.,"(4.69e+03,7.41e+03]",FALSE,429
519,44,X6,1,1,1,1,tv,8,4,0.5,272,4080,8.313852267,0,10101010,1,0,0.5,4,0,0,4,1,1,1,chose desirable,desirable fac.,"(3.23e+03,4.69e+03]",FALSE,230
520,45,X6,0,1,1,0,ph,10,3,0.3,1125,5137,8.54422453,0,1100100,1,-0.2,0.7,7,-4,4,7,1,-1,-1,chose undesirable,undesirable fac.,"(4.69e+03,7.41e+03]",FALSE,187
521,46,X6,0,0,0,0,tv,8,1,0.125,555,4138,8.327967858,0,1000000,1,-0.375,0.875,7,-6,6,7,1,-1,-1,chose undesirable,undesirable fac.,"(3.23e+03,4.69e+03]",FALSE,288
522,47,X6,0,1,1,0,ph,15,5,0.333333333,635,8127,9.002947131,0,1.01E+14,1,-0.166666667,0.666666667,10,-5,5,10,1,-1,-1,chose undesirable,undesirable fac.,"(7.41e+03,2.03e+05]",FALSE,427
523,48,X6,1,0,0,1,ph,29,19,0.655172414,1023,15448,9.645234824,0,1.10E+28,1,0.155172414,0.655172414,10,9,9,19,1,1,1,chose desirable,desirable fac.,"(7.41e+03,2.03e+05]",FALSE,48
524,49,X6,0,0,0,0,tv,8,3,0.375,722,4307,8.367996885,0,1101000,1,-0.125,0.625,5,-2,2,5,1,-1,-1,chose undesirable,undesirable fac.,"(3.23e+03,4.69e+03]",FALSE,457
525,50,X6,0,1,1,0,ph,5,1,0.2,566,2248,7.717796211,0,1,1,-0.3,0.8,4,-3,3,4,1,-1,-1,chose undesirable,undesirable fac.,"(2.08e+03,3.23e+03]",FALSE,48
526,51,X6,0,0,0,0,tv,7,2,0.285714286,689,3490,8.157657015,0,1001,1,-0.214285714,0.714285714,5,-3,3,5,1,-1,-1,chose undesirable,undesirable fac.,"(3.23e+03,4.69e+03]",FALSE,190
527,52,X6,1,0,0,1,ph,10,8,0.8,685,5056,8.528330936,0,1100111111,1,0.3,0.8,2,6,6,8,1,1,1,chose desirable,desirable fac.,"(4.69e+03,7.41e+03]",FALSE,106
528,53,X6,0,1,1,0,ph,5,1,0.2,178,2203,7.697575347,0,10000,1,-0.3,0.8,4,-3,3,4,1,-1,-1,chose undesirable,undesirable fac.,"(2.08e+03,3.23e+03]",FALSE,3
530,55,X6,1,1,1,1,tv,22,12,0.545454545,382,11569,9.356084386,0,1.10E+20,1,0.045454545,0.545454545,10,2,2,12,1,1,1,chose desirable,desirable fac.,"(7.41e+03,2.03e+05]",FALSE,19
531,56,X6,0,1,0,1,tv,8,2,0.25,1448,4167,8.334951631,0,1000001,0,-0.25,0.75,6,-4,4,6,0,1,-1,chose undesirable,desirable fac.,"(3.23e+03,4.69e+03]",FALSE,317
533,58,X6,1,1,1,1,tv,26,15,0.576923077,814,14104,9.554213724,0,1.10E+23,1,0.076923077,0.576923077,11,4,4,15,1,1,1,chose desirable,desirable fac.,"(7.41e+03,2.03e+05]",FALSE,354
534,59,X6,0,1,1,0,ph,11,3,0.272727273,1523,5903,8.683215975,0,1001010000,1,-0.227272727,0.727272727,8,-5,5,8,1,-1,-1,chose undesirable,undesirable fac.,"(4.69e+03,7.41e+03]",FALSE,403
535,60,X6,0,0,0,0,tv,7,2,0.285714286,1276,3600,8.188689124,0,110000,1,-0.214285714,0.714285714,5,-3,3,5,1,-1,-1,chose undesirable,undesirable fac.,"(3.23e+03,4.69e+03]",FALSE,300
536,61,X6,1,1,0,0,ph,12,7,0.583333333,540,6174,8.728102205,0,10111011010,0,0.083333333,0.583333333,5,2,2,7,0,-1,1,chose desirable,undesirable fac.,"(4.69e+03,7.41e+03]",FALSE,124
537,62,X6,0,1,0,1,tv,2,0,0,612,688,6.533788838,1,0,0,-0.5,1,2,-2,2,2,0,1,-1,chose undesirable,desirable fac.,"[1,2.08e+03]",FALSE,138
538,63,X6,1,0,0,1,ph,10,6,0.6,524,4960,8.50916102,0,10101111,1,0.1,0.6,4,2,2,6,1,1,1,chose desirable,desirable fac.,"(4.69e+03,7.41e+03]",FALSE,10
539,64,X6,0,0,0,0,tv,16,6,0.375,446,8345,9.029417836,0,1.01E+15,1,-0.125,0.625,10,-4,4,10,1,-1,-1,chose undesirable,undesirable fac.,"(7.41e+03,2.03e+05]",FALSE,95
540,65,X6,0,1,0,1,tv,46,24,0.52173913,839,25279,10.13772929,0,1.00E+45,0,0.02173913,0.47826087,22,2,-2,22,0,1,-1,chose undesirable,desirable fac.,"(7.41e+03,2.03e+05]",FALSE,529
541,66,X6,1,1,1,1,tv,16,10,0.625,997,8314,9.02569612,0,1.10E+15,1,0.125,0.625,6,4,4,10,1,1,1,chose desirable,desirable fac.,"(7.41e+03,2.03e+05]",FALSE,64
543,68,X6,0,1,1,0,ph,20,9,0.45,1631,10494,9.258558944,0,1.00E+18,1,-0.05,0.55,11,-2,2,11,1,-1,-1,chose undesirable,undesirable fac.,"(7.41e+03,2.03e+05]",FALSE,44
544,69,X6,0,0,1,1,ph,3,1,0.333333333,446,1540,7.339537695,0,1,0,-0.166666667,0.666666667,2,-1,1,2,0,1,-1,chose undesirable,desirable fac.,"[1,2.08e+03]",FALSE,440
545,70,X6,0,1,1,0,ph,10,3,0.3,170,5055,8.528133131,0,1010000001,1,-0.2,0.7,7,-4,4,7,1,-1,-1,chose undesirable,undesirable fac.,"(4.69e+03,7.41e+03]",FALSE,105
546,71,X6,1,0,0,1,ph,2,2,1,367,1096,6.999422468,0,11,1,0.5,1,0,2,2,2,1,1,1,chose desirable,desirable fac.,"[1,2.08e+03]",FALSE,546
547,72,X6,1,0,1,0,tv,9,5,0.555555556,3423,4699,8.455104999,0,10010111,0,0.055555556,0.555555556,4,1,1,5,0,-1,1,chose desirable,undesirable fac.,"(4.69e+03,7.41e+03]",FALSE,299
548,73,X6,0,0,1,1,ph,9,4,0.444444444,2126,4870,8.490849216,1,100010101,0,-0.055555556,0.555555556,5,-1,1,5,0,1,-1,chose undesirable,desirable fac.,"(4.69e+03,7.41e+03]",FALSE,470
549,74,X6,1,0,0,1,ph,11,7,0.636363636,1025,5815,8.668196065,0,11011001101,1,0.136363636,0.636363636,4,3,3,7,1,1,1,chose desirable,desirable fac.,"(4.69e+03,7.41e+03]",FALSE,315
550,75,X6,1,1,1,1,tv,14,8,0.571428571,1042,7323,8.898775359,2,1.01E+11,1,0.071428571,0.571428571,6,2,2,8,1,1,1,chose desirable,desirable fac.,"(4.69e+03,7.41e+03]",FALSE,173
553,78,X6,0,0,0,0,tv,4,0,0,154,1820,7.50659178,0,0,1,-0.5,1,4,-4,4,4,1,-1,-1,chose undesirable,undesirable fac.,"[1,2.08e+03]",FALSE,170
554,79,X6,0,0,0,0,tv,12,3,0.25,761,6187,8.730205596,0,10101000000,1,-0.25,0.75,9,-6,6,9,1,-1,-1,chose undesirable,undesirable fac.,"(4.69e+03,7.41e+03]",FALSE,137
555,80,X6,0,1,1,0,ph,12,6,0.5,96,6276,8.744488114,0,11001010011,1,0,0.5,6,0,0,6,1,-1,-1,chose undesirable,undesirable fac.,"(4.69e+03,7.41e+03]",FALSE,226
556,81,X6,0,1,1,0,ph,10,0,0,181,5016,8.520388082,0,0,1,-0.5,1,10,-10,10,10,1,-1,-1,chose undesirable,undesirable fac.,"(4.69e+03,7.41e+03]",FALSE,66
557,82,X6,0,0,0,0,tv,5,1,0.2,191,2534,7.837554361,0,10000,1,-0.3,0.8,4,-3,3,4,1,-1,-1,chose undesirable,undesirable fac.,"(2.08e+03,3.23e+03]",FALSE,334
558,83,X6,0,1,1,0,ph,11,3,0.272727273,1471,5703,8.648747631,0,1001010000,1,-0.227272727,0.727272727,8,-5,5,8,1,-1,-1,chose undesirable,undesirable fac.,"(4.69e+03,7.41e+03]",FALSE,203
559,84,X6,1,0,0,1,ph,10,6,0.6,407,5489,8.610501369,0,10111011,1,0.1,0.6,4,2,2,6,1,1,1,chose desirable,desirable fac.,"(4.69e+03,7.41e+03]",FALSE,539
560,85,X6,1,0,1,0,tv,6,4,0.666666667,455,2848,7.954372273,0,110110,0,0.166666667,0.666666667,2,2,2,4,0,-1,1,chose desirable,undesirable fac.,"(2.08e+03,3.23e+03]",FALSE,98
561,86,X6,0,0,0,0,tv,6,2,0.333333333,1478,2848,7.954372273,0,100001,1,-0.166666667,0.666666667,4,-2,2,4,1,-1,-1,chose undesirable,undesirable fac.,"(2.08e+03,3.23e+03]",FALSE,98
562,87,X6,0,0,1,1,ph,9,5,0.555555556,703,4829,8.482394686,0,101010011,0,0.055555556,0.444444444,4,1,-1,4,0,1,-1,chose undesirable,desirable fac.,"(4.69e+03,7.41e+03]",FALSE,429
563,88,X6,1,0,0,1,ph,12,9,0.75,1183,6224,8.736168066,0,1.11E+11,1,0.25,0.75,3,6,6,9,1,1,1,chose desirable,desirable fac.,"(4.69e+03,7.41e+03]",FALSE,174
564,89,X6,0,0,0,0,tv,13,5,0.384615385,231,6667,8.804925263,0,1.00E+11,1,-0.115384615,0.615384615,8,-3,3,8,1,-1,-1,chose undesirable,undesirable fac.,"(4.69e+03,7.41e+03]",FALSE,67
565,90,X6,0,1,1,0,ph,15,7,0.466666667,1740,8218,9.014082149,0,1.11E+14,1,-0.033333333,0.533333333,8,-1,1,8,1,-1,-1,chose undesirable,undesirable fac.,"(7.41e+03,2.03e+05]",FALSE,518
566,91,X6,1,1,1,1,tv,34,22,0.647058824,2420,18671,9.834726797,0,1.11E+33,1,0.147058824,0.647058824,12,10,10,22,1,1,1,chose desirable,desirable fac.,"(7.41e+03,2.03e+05]",FALSE,521
567,92,X6,1,0,1,0,tv,5,4,0.8,62,2683,7.89469085,0,11110,0,0.3,0.8,1,3,3,4,0,-1,1,chose desirable,undesirable fac.,"(2.08e+03,3.23e+03]",FALSE,483
568,93,X6,0,1,1,0,ph,5,2,0.4,2081,2673,7.890956716,0,1001,1,-0.1,0.6,3,-1,1,3,1,-1,-1,chose undesirable,undesirable fac.,"(2.08e+03,3.23e+03]",FALSE,473
569,94,X6,1,0,0,1,ph,6,5,0.833333333,1199,2911,7.976251944,0,110111,1,0.333333333,0.833333333,1,4,4,5,1,1,1,chose desirable,desirable fac.,"(2.08e+03,3.23e+03]",FALSE,161
570,95,X6,0,1,0,1,tv,8,3,0.375,116579,4043,8.30474227,0,11001,0,-0.125,0.625,5,-2,2,5,0,1,-1,chose undesirable,desirable fac.,"(3.23e+03,4.69e+03]",FALSE,193
571,1,X7,0,1,1,0,ph,3,1,0.333333333,459,1557,7.350516172,0,1,1,-0.166666667,0.666666667,2,-1,1,2,1,-1,-1,chose undesirable,undesirable fac.,"[1,2.08e+03]",FALSE,457
572,2,X7,0,1,1,0,ph,16,9,0.5625,353,8641,9.064273596,0,1.00E+14,1,0.0625,0.4375,7,2,-2,7,1,-1,-1,chose undesirable,undesirable fac.,"(7.41e+03,2.03e+05]",FALSE,391
573,3,X7,0,0,0,0,tv,6,0,0,880,2854,7.956476798,0,0,1,-0.5,1,6,-6,6,6,1,-1,-1,chose undesirable,undesirable fac.,"(2.08e+03,3.23e+03]",FALSE,104
574,4,X7,1,1,1,1,tv,7,6,0.857142857,167,3432,8.140898461,0,1111011,1,0.357142857,0.857142857,1,5,5,6,1,1,1,chose desirable,desirable fac.,"(3.23e+03,4.69e+03]",FALSE,132
578,8,X7,1,1,1,1,tv,5,3,0.6,116,2414,7.789040402,0,10110,1,0.1,0.6,2,1,1,3,1,1,1,chose desirable,desirable fac.,"(2.08e+03,3.23e+03]",FALSE,214
579,9,X7,1,1,1,1,tv,8,5,0.625,1750,4141,8.328692584,4,10011110,1,0.125,0.625,3,2,2,5,1,1,1,chose desirable,desirable fac.,"(3.23e+03,4.69e+03]",FALSE,291
581,11,X7,1,1,1,1,tv,8,5,0.625,1074,3903,8.269500767,0,1011011,1,0.125,0.625,3,2,2,5,1,1,1,chose desirable,desirable fac.,"(3.23e+03,4.69e+03]",FALSE,53
582,12,X7,0,1,1,0,ph,12,7,0.583333333,477,6355,8.756997184,0,1.01E+11,1,0.083333333,0.416666667,5,2,-2,5,1,-1,-1,chose undesirable,undesirable fac.,"(4.69e+03,7.41e+03]",FALSE,305
583,13,X7,1,1,1,1,tv,4,3,0.75,1006,2018,7.609862201,0,111,1,0.25,0.75,1,2,2,3,1,1,1,chose desirable,desirable fac.,"[1,2.08e+03]",FALSE,368
584,14,X7,1,1,1,1,tv,10,7,0.7,415,5498,8.612139669,5,1010101111,1,0.2,0.7,3,4,4,7,1,1,1,chose desirable,desirable fac.,"(4.69e+03,7.41e+03]",FALSE,548
585,15,X7,1,1,1,1,tv,5,5,1,238,2296,7.738923757,0,11111,1,0.5,1,0,5,5,5,1,1,1,chose desirable,desirable fac.,"(2.08e+03,3.23e+03]",FALSE,96
586,16,X7,1,0,1,0,tv,6,5,0.833333333,311,2799,7.93701749,0,111101,0,0.333333333,0.833333333,1,4,4,5,0,-1,1,chose desirable,undesirable fac.,"(2.08e+03,3.23e+03]",FALSE,49
587,17,X7,1,0,0,1,ph,4,3,0.75,1147,1899,7.549082711,0,1110,1,0.25,0.75,1,2,2,3,1,1,1,chose desirable,desirable fac.,"[1,2.08e+03]",FALSE,249
588,18,X7,1,1,0,0,ph,6,1,0.166666667,461,2855,7.956827122,0,100000,0,-0.333333333,0.166666667,5,-4,-4,1,0,-1,1,chose desirable,undesirable fac.,"(2.08e+03,3.23e+03]",FALSE,105
589,19,X7,1,1,1,1,tv,18,14,0.777777778,591,9641,9.173780117,0,1.11E+17,1,0.277777778,0.777777778,4,10,10,14,1,1,1,chose desirable,desirable fac.,"(7.41e+03,2.03e+05]",FALSE,291
590,20,X7,1,0,0,1,ph,4,3,0.75,1374,2144,7.670428522,0,1011,1,0.25,0.75,1,2,2,3,1,1,1,chose desirable,desirable fac.,"(2.08e+03,3.23e+03]",FALSE,494
591,21,X7,0,0,0,0,tv,6,3,0.5,1047,3103,8.040124664,0,1101,1,0,0.5,3,0,0,3,1,-1,-1,chose undesirable,undesirable fac.,"(2.08e+03,3.23e+03]",FALSE,353
592,22,X7,0,0,1,1,ph,12,4,0.333333333,666,6119,8.719153963,6,1.10E+11,0,-0.166666667,0.666666667,8,-4,4,8,0,1,-1,chose undesirable,desirable fac.,"(4.69e+03,7.41e+03]",FALSE,69
593,23,X7,0,1,1,0,ph,9,3,0.333333333,44,4949,8.506940815,0,101100000,1,-0.166666667,0.666666667,6,-3,3,6,1,-1,-1,chose undesirable,undesirable fac.,"(4.69e+03,7.41e+03]",FALSE,549
594,24,X7,1,0,0,1,ph,14,9,0.642857143,631,7392,8.908153613,0,1.10E+12,1,0.142857143,0.642857143,5,4,4,9,1,1,1,chose desirable,desirable fac.,"(4.69e+03,7.41e+03]",FALSE,242
595,25,X7,1,1,1,1,tv,6,6,1,368,3023,8.014004995,0,111111,1,0.5,1,0,6,6,6,1,1,1,chose desirable,desirable fac.,"(2.08e+03,3.23e+03]",FALSE,273
596,26,X7,1,0,0,1,ph,10,7,0.7,797,5400,8.594154233,0,110101111,1,0.2,0.7,3,4,4,7,1,1,1,chose desirable,desirable fac.,"(4.69e+03,7.41e+03]",FALSE,450
597,27,X7,1,0,1,0,tv,8,5,0.625,582,4000,8.29404964,0,11001101,0,0.125,0.625,3,2,2,5,0,-1,1,chose desirable,undesirable fac.,"(3.23e+03,4.69e+03]",FALSE,150
598,28,X7,1,0,1,0,tv,11,7,0.636363636,591,5641,8.637816634,0,11011111,0,0.136363636,0.636363636,4,3,3,7,0,-1,1,chose desirable,undesirable fac.,"(4.69e+03,7.41e+03]",FALSE,141
599,29,X7,1,0,0,1,ph,19,12,0.631578947,2878,10423,9.251770182,0,1.11E+18,1,0.131578947,0.631578947,7,5,5,12,1,1,1,chose desirable,desirable fac.,"(7.41e+03,2.03e+05]",FALSE,523
600,30,X7,0,1,1,0,ph,4,1,0.25,832,2127,7.662467815,0,1,1,-0.25,0.75,3,-2,2,3,1,-1,-1,chose undesirable,undesirable fac.,"(2.08e+03,3.23e+03]",FALSE,477
601,31,X7,1,0,1,0,tv,22,9,0.409090909,92,11986,9.391494581,0,1.11E+19,0,-0.090909091,0.409090909,13,-4,-4,9,0,-1,1,chose desirable,undesirable fac.,"(7.41e+03,2.03e+05]",FALSE,436
602,32,X7,0,0,1,1,ph,8,2,0.25,2391,4096,8.317766167,0,10000100,0,-0.25,0.75,6,-4,4,6,0,1,-1,chose undesirable,desirable fac.,"(3.23e+03,4.69e+03]",FALSE,246
603,33,X7,0,0,0,0,tv,7,2,0.285714286,508,3659,8.204945165,0,1100000,1,-0.214285714,0.714285714,5,-3,3,5,1,-1,-1,chose undesirable,undesirable fac.,"(3.23e+03,4.69e+03]",FALSE,359
604,34,X7,0,0,0,0,tv,51,20,0.392156863,910,27625,10.22647644,0,1.01E+48,1,-0.107843137,0.607843137,31,-11,11,31,1,-1,-1,chose undesirable,undesirable fac.,"(7.41e+03,2.03e+05]",FALSE,125
605,35,X7,1,0,0,1,ph,12,7,0.583333333,3321,6246,8.739696538,0,1.11E+11,1,0.083333333,0.583333333,5,2,2,7,1,1,1,chose desirable,desirable fac.,"(4.69e+03,7.41e+03]",FALSE,196
606,36,X7,0,1,1,0,ph,13,2,0.153846154,606,6880,8.836373931,0,1.00E+11,1,-0.346153846,0.846153846,11,-9,9,11,1,-1,-1,chose undesirable,undesirable fac.,"(4.69e+03,7.41e+03]",FALSE,280
607,37,X7,1,0,0,1,ph,4,4,1,5995,2197,7.694848072,0,1111,1,0.5,1,0,4,4,4,1,1,1,chose desirable,desirable fac.,"(2.08e+03,3.23e+03]",FALSE,547
608,38,X7,0,1,1,0,ph,16,5,0.3125,363,8683,9.06912237,0,1.00E+13,1,-0.1875,0.6875,11,-6,6,11,1,-1,-1,chose undesirable,undesirable fac.,"(7.41e+03,2.03e+05]",FALSE,433
609,39,X7,0,1,1,0,ph,7,2,0.285714286,654,3659,8.204945165,0,1001,1,-0.214285714,0.714285714,5,-3,3,5,1,-1,-1,chose undesirable,undesirable fac.,"(3.23e+03,4.69e+03]",FALSE,359
610,40,X7,1,0,1,0,tv,6,4,0.666666667,727,3297,8.100768243,0,11110,0,0.166666667,0.666666667,2,2,2,4,0,-1,1,chose desirable,undesirable fac.,"(3.23e+03,4.69e+03]",FALSE,547
612,42,X7,0,0,0,0,tv,7,3,0.428571429,256,3595,8.18729927,0,1010001,1,-0.071428571,0.571428571,4,-1,1,4,1,-1,-1,chose undesirable,undesirable fac.,"(3.23e+03,4.69e+03]",FALSE,295
614,44,X7,0,1,0,1,tv,5,1,0.2,138,2504,7.825644732,0,10000,0,-0.3,0.8,4,-3,3,4,0,1,-1,chose undesirable,desirable fac.,"(2.08e+03,3.23e+03]",FALSE,304
615,45,X7,0,1,1,0,ph,5,1,0.2,607,2265,7.725330038,0,1,1,-0.3,0.8,4,-3,3,4,1,-1,-1,chose undesirable,undesirable fac.,"(2.08e+03,3.23e+03]",FALSE,65
616,46,X7,1,1,1,1,tv,10,7,0.7,646,5124,8.541690663,0,1101011110,1,0.2,0.7,3,4,4,7,1,1,1,chose desirable,desirable fac.,"(4.69e+03,7.41e+03]",FALSE,174
617,47,X7,0,1,1,0,ph,16,7,0.4375,914,8368,9.032170186,1,1.00E+15,1,-0.0625,0.5625,9,-2,2,9,1,-1,-1,chose undesirable,undesirable fac.,"(7.41e+03,2.03e+05]",FALSE,118
618,48,X7,1,0,0,1,ph,9,7,0.777777778,952,4647,8.443977129,0,111011110,1,0.277777778,0.777777778,2,5,5,7,1,1,1,chose desirable,desirable fac.,"(3.23e+03,4.69e+03]",FALSE,247
619,49,X7,0,0,0,0,tv,7,3,0.428571429,413,3479,8.154500175,0,100101,1,-0.071428571,0.571428571,4,-1,1,4,1,-1,-1,chose undesirable,undesirable fac.,"(3.23e+03,4.69e+03]",FALSE,179
620,50,X7,1,0,0,1,ph,8,6,0.75,1024,4082,8.314342343,0,10101111,1,0.25,0.75,2,4,4,6,1,1,1,chose desirable,desirable fac.,"(3.23e+03,4.69e+03]",FALSE,232
621,51,X7,0,0,0,0,tv,13,4,0.307692308,1118,6880,8.836373931,0,1.10E+11,1,-0.192307692,0.692307692,9,-5,5,9,1,-1,-1,chose undesirable,undesirable fac.,"(4.69e+03,7.41e+03]",FALSE,280
622,52,X7,0,1,1,0,ph,21,10,0.476190476,955,11386,9.34013981,0,1.11E+20,1,-0.023809524,0.523809524,11,-1,1,11,1,-1,-1,chose undesirable,undesirable fac.,"(7.41e+03,2.03e+05]",FALSE,386
623,53,X7,0,1,1,0,ph,7,2,0.285714286,478,3365,8.121183242,0,110000,1,-0.214285714,0.714285714,5,-3,3,5,1,-1,-1,chose undesirable,undesirable fac.,"(3.23e+03,4.69e+03]",FALSE,65
625,55,X7,1,1,1,1,tv,14,10,0.714285714,302,7281,8.893023494,0,1.11E+12,1,0.214285714,0.714285714,4,6,6,10,1,1,1,chose desirable,desirable fac.,"(4.69e+03,7.41e+03]",FALSE,131
626,56,X7,1,1,1,1,tv,6,5,0.833333333,1350,3232,8.08085642,0,111110,1,0.333333333,0.833333333,1,4,4,5,1,1,1,chose desirable,desirable fac.,"(3.23e+03,4.69e+03]",FALSE,482
628,58,X7,1,1,1,1,tv,9,7,0.777777778,1175,4696,8.454466362,0,11110111,1,0.277777778,0.777777778,2,5,5,7,1,1,1,chose desirable,desirable fac.,"(4.69e+03,7.41e+03]",FALSE,296
629,59,X7,0,0,1,1,ph,6,1,0.166666667,209,3278,8.094988759,0,1000,0,-0.333333333,0.833333333,5,-4,4,5,0,1,-1,chose undesirable,desirable fac.,"(3.23e+03,4.69e+03]",FALSE,528
630,60,X7,1,1,1,1,tv,9,7,0.777777778,707,4890,8.494947582,0,111100111,1,0.277777778,0.777777778,2,5,5,7,1,1,1,chose desirable,desirable fac.,"(4.69e+03,7.41e+03]",FALSE,490
631,61,X7,1,0,0,1,ph,26,15,0.576923077,465,13828,9.534450801,0,1.10E+24,1,0.076923077,0.576923077,11,4,4,15,1,1,1,chose desirable,desirable fac.,"(7.41e+03,2.03e+05]",FALSE,78
632,62,X7,0,0,0,0,tv,2,0,0,623,1032,6.939253946,1,0,1,-0.5,1,2,-2,2,2,1,-1,-1,chose undesirable,undesirable fac.,"[1,2.08e+03]",FALSE,482
633,63,X7,0,1,1,0,ph,8,1,0.125,1086,4066,8.310414994,0,10000000,1,-0.375,0.875,7,-6,6,7,1,-1,-1,chose undesirable,undesirable fac.,"(3.23e+03,4.69e+03]",FALSE,216
634,64,X7,0,0,0,0,tv,14,5,0.357142857,824,7353,8.902863672,0,1.10E+12,1,-0.142857143,0.642857143,9,-4,4,9,1,-1,-1,chose undesirable,undesirable fac.,"(4.69e+03,7.41e+03]",FALSE,203
635,65,X7,0,1,0,1,tv,22,8,0.363636364,24415,11800,9.37585481,1,1.10E+17,0,-0.136363636,0.636363636,14,-6,6,14,0,1,-1,chose undesirable,desirable fac.,"(7.41e+03,2.03e+05]",FALSE,250
636,66,X7,1,1,1,1,tv,18,12,0.666666667,1002,9768,9.186867016,0,1.10E+17,1,0.166666667,0.666666667,6,6,6,12,1,1,1,chose desirable,desirable fac.,"(7.41e+03,2.03e+05]",FALSE,418
638,68,X7,0,1,1,0,ph,17,7,0.411764706,999,9195,9.126415137,0,1.00E+13,1,-0.088235294,0.588235294,10,-3,3,10,1,-1,-1,chose undesirable,undesirable fac.,"(7.41e+03,2.03e+05]",FALSE,395
639,69,X7,1,0,0,1,ph,4,3,0.75,554,2116,7.657282793,0,111,1,0.25,0.75,1,2,2,3,1,1,1,chose desirable,desirable fac.,"(2.08e+03,3.23e+03]",FALSE,466
640,70,X7,1,0,0,1,ph,5,4,0.8,514,2438,7.79893331,0,11110,1,0.3,0.8,1,3,3,4,1,1,1,chose desirable,desirable fac.,"(2.08e+03,3.23e+03]",FALSE,238
641,71,X7,1,1,0,0,ph,3,2,0.666666667,383,1648,7.40731771,0,11,0,0.166666667,0.666666667,1,1,1,2,0,-1,1,chose desirable,undesirable fac.,"[1,2.08e+03]",FALSE,548
642,72,X7,1,1,1,1,tv,5,5,1,456,2674,7.891330758,0,11111,1,0.5,1,0,5,5,5,1,1,1,chose desirable,desirable fac.,"(2.08e+03,3.23e+03]",FALSE,474
643,73,X7,1,1,0,0,ph,6,4,0.666666667,1099,3094,8.037220031,0,110110,0,0.166666667,0.666666667,2,2,2,4,0,-1,1,chose desirable,undesirable fac.,"(2.08e+03,3.23e+03]",FALSE,344
644,74,X7,0,1,1,0,ph,6,0,0,454,3000,8.006367568,0,0,1,-0.5,1,6,-6,6,6,1,-1,-1,chose undesirable,undesirable fac.,"(2.08e+03,3.23e+03]",FALSE,250
645,75,X7,0,0,0,0,tv,24,9,0.375,679,13117,9.481664378,1,1.10E+22,1,-0.125,0.625,15,-6,6,15,1,-1,-1,chose undesirable,undesirable fac.,"(7.41e+03,2.03e+05]",FALSE,467
648,78,X7,1,1,1,1,tv,3,3,1,427,1490,7.306531399,0,111,1,0.5,1,0,3,3,3,1,1,1,chose desirable,desirable fac.,"[1,2.08e+03]",FALSE,390
649,79,X7,0,1,0,1,tv,17,7,0.411764706,592,9071,9.112837791,0,1.10E+15,0,-0.088235294,0.588235294,10,-3,3,10,0,1,-1,chose undesirable,desirable fac.,"(7.41e+03,2.03e+05]",FALSE,271
650,80,X7,0,1,1,0,ph,23,10,0.434782609,244,12216,9.410501847,0,1.01E+22,1,-0.065217391,0.565217391,13,-3,3,13,1,-1,-1,chose undesirable,undesirable fac.,"(7.41e+03,2.03e+05]",FALSE,116
651,81,X7,1,0,0,1,ph,17,10,0.588235294,1151,8808,9.083415678,0,1.00E+15,1,0.088235294,0.588235294,7,3,3,10,1,1,1,chose desirable,desirable fac.,"(7.41e+03,2.03e+05]",FALSE,8
652,82,X7,1,0,1,0,tv,12,8,0.666666667,135,6195,8.731497794,0,1.11E+11,0,0.166666667,0.666666667,4,4,4,8,0,-1,1,chose desirable,undesirable fac.,"(4.69e+03,7.41e+03]",FALSE,145
653,83,X7,1,0,0,1,ph,13,9,0.692307692,2869,7111,8.86939816,0,1.00E+12,1,0.192307692,0.692307692,4,5,5,9,1,1,1,chose desirable,desirable fac.,"(4.69e+03,7.41e+03]",FALSE,511
654,84,X7,1,0,0,1,ph,9,5,0.555555556,416,4561,8.425297177,0,100110110,1,0.055555556,0.555555556,4,1,1,5,1,1,1,chose desirable,desirable fac.,"(3.23e+03,4.69e+03]",FALSE,161
655,85,X7,0,0,0,0,tv,4,2,0.5,167,1728,7.454719949,0,101,1,0,0.5,2,0,0,2,1,-1,-1,chose undesirable,undesirable fac.,"[1,2.08e+03]",FALSE,78
656,86,X7,0,0,0,0,tv,5,0,0,1006,2633,7.875879159,0,0,1,-0.5,1,5,-5,5,5,1,-1,-1,chose undesirable,undesirable fac.,"(2.08e+03,3.23e+03]",FALSE,433
657,87,X7,0,1,1,0,ph,7,3,0.428571429,2264,3465,8.150467912,0,1010001,1,-0.071428571,0.571428571,4,-1,1,4,1,-1,-1,chose undesirable,undesirable fac.,"(3.23e+03,4.69e+03]",FALSE,165
658,88,X7,1,0,0,1,ph,9,7,0.777777778,894,4561,8.425297177,0,10111111,1,0.277777778,0.777777778,2,5,5,7,1,1,1,chose desirable,desirable fac.,"(3.23e+03,4.69e+03]",FALSE,161
659,89,X7,0,0,0,0,tv,6,2,0.333333333,216,3249,8.086102536,0,100100,1,-0.166666667,0.666666667,4,-2,2,4,1,-1,-1,chose undesirable,undesirable fac.,"(3.23e+03,4.69e+03]",FALSE,499
660,90,X7,1,0,0,1,ph,16,8,0.5,881,8744,9.07612303,0,1.11E+12,1,0,0.5,8,0,0,8,1,1,1,chose desirable,desirable fac.,"(7.41e+03,2.03e+05]",FALSE,494
661,91,X7,0,0,0,0,tv,17,7,0.411764706,11754,9311,9.138951776,0,1.10E+13,1,-0.088235294,0.588235294,10,-3,3,10,1,-1,-1,chose undesirable,undesirable fac.,"(7.41e+03,2.03e+05]",FALSE,511
662,92,X7,0,0,0,0,tv,11,3,0.272727273,1534,5704,8.648922962,0,11100000,1,-0.227272727,0.727272727,8,-5,5,8,1,-1,-1,chose undesirable,undesirable fac.,"(4.69e+03,7.41e+03]",FALSE,204
663,93,X7,1,0,0,1,ph,4,2,0.5,2093,1747,7.46565531,0,1100,1,0,0.5,2,0,0,2,1,1,1,chose desirable,desirable fac.,"[1,2.08e+03]",FALSE,97
664,94,X7,1,0,0,1,ph,8,3,0.375,679,4055,8.307705967,0,10101,1,-0.125,0.375,5,-2,-2,3,1,1,1,chose desirable,desirable fac.,"(3.23e+03,4.69e+03]",FALSE,205
665,95,X7,1,1,1,1,tv,42,26,0.619047619,8686,22568,10.02428825,0,1.01E+41,1,0.119047619,0.619047619,16,10,10,26,1,1,1,chose desirable,desirable fac.,"(7.41e+03,2.03e+05]",FALSE,18
666,1,X8,0,0,1,1,ph,7,4,0.571428571,70,3420,8.13739583,0,1100101,0,0.071428571,0.428571429,3,1,-1,3,0,1,-1,chose undesirable,desirable fac.,"(3.23e+03,4.69e+03]",FALSE,120
667,2,X8,0,1,1,0,ph,6,1,0.166666667,339,2906,7.974532844,0,100,1,-0.333333333,0.833333333,5,-4,4,5,1,-1,-1,chose undesirable,undesirable fac.,"(2.08e+03,3.23e+03]",FALSE,156
668,3,X8,0,1,0,1,tv,12,4,0.333333333,480,6417,8.766705998,0,11101000,0,-0.166666667,0.666666667,8,-4,4,8,0,1,-1,chose undesirable,desirable fac.,"(4.69e+03,7.41e+03]",FALSE,367
669,4,X8,1,0,1,0,tv,8,6,0.75,273,4043,8.30474227,0,10111110,0,0.25,0.75,2,4,4,6,0,-1,1,chose desirable,undesirable fac.,"(3.23e+03,4.69e+03]",FALSE,193
673,8,X8,0,1,0,1,tv,5,1,0.2,169,2465,7.809947086,0,10000,0,-0.3,0.8,4,-3,3,4,0,1,-1,chose undesirable,desirable fac.,"(2.08e+03,3.23e+03]",FALSE,265
674,9,X8,0,0,0,0,tv,5,0,0,2765,2283,7.733245647,2,0,1,-0.5,1,5,-5,5,5,1,-1,-1,chose undesirable,undesirable fac.,"(2.08e+03,3.23e+03]",FALSE,83
676,11,X8,1,0,1,0,tv,9,5,0.555555556,967,4643,8.443115988,0,11011010,0,0.055555556,0.555555556,4,1,1,5,0,-1,1,chose desirable,undesirable fac.,"(3.23e+03,4.69e+03]",FALSE,243
677,12,X8,1,0,0,1,ph,7,5,0.714285714,457,3552,8.175266104,0,111110,1,0.214285714,0.714285714,2,3,3,5,1,1,1,chose desirable,desirable fac.,"(3.23e+03,4.69e+03]",FALSE,252
678,13,X8,0,1,0,1,tv,4,1,0.25,1237,2153,7.674617497,0,10,0,-0.25,0.75,3,-2,2,3,0,1,-1,chose undesirable,desirable fac.,"(2.08e+03,3.23e+03]",FALSE,503
679,14,X8,0,1,0,1,tv,7,2,0.285714286,496,3521,8.166500319,3,110000,0,-0.214285714,0.714285714,5,-3,3,5,0,1,-1,chose undesirable,desirable fac.,"(3.23e+03,4.69e+03]",FALSE,221
680,15,X8,1,1,1,1,tv,7,3,0.428571429,471,3391,8.128880142,0,1010100,1,-0.071428571,0.428571429,4,-1,-1,3,1,1,1,chose desirable,desirable fac.,"(3.23e+03,4.69e+03]",FALSE,91
681,16,X8,0,0,0,0,tv,9,3,0.333333333,584,4903,8.497602542,0,10001010,1,-0.166666667,0.666666667,6,-3,3,6,1,-1,-1,chose undesirable,undesirable fac.,"(4.69e+03,7.41e+03]",FALSE,503
682,17,X8,0,1,1,0,ph,6,1,0.166666667,1067,2864,7.959974528,0,100000,1,-0.333333333,0.833333333,5,-4,4,5,1,-1,-1,chose undesirable,undesirable fac.,"(2.08e+03,3.23e+03]",FALSE,114
683,18,X8,0,1,1,0,ph,5,1,0.2,994,2618,7.870165946,0,10000,1,-0.3,0.8,4,-3,3,4,1,-1,-1,chose undesirable,undesirable fac.,"(2.08e+03,3.23e+03]",FALSE,418
684,19,X8,0,0,0,0,tv,19,9,0.473684211,607,10448,9.254165852,0,1.00E+18,1,-0.026315789,0.526315789,10,-1,1,10,1,-1,-1,chose undesirable,undesirable fac.,"(7.41e+03,2.03e+05]",FALSE,548
685,20,X8,1,1,0,0,ph,3,2,0.666666667,232,1647,7.40671073,0,101,0,0.166666667,0.666666667,1,1,1,2,0,-1,1,chose desirable,undesirable fac.,"[1,2.08e+03]",FALSE,547
686,21,X8,0,0,0,0,tv,8,3,0.375,452,4081,8.314097335,0,10100100,1,-0.125,0.625,5,-2,2,5,1,-1,-1,chose undesirable,undesirable fac.,"(3.23e+03,4.69e+03]",FALSE,231
687,22,X8,0,1,1,0,ph,18,8,0.444444444,1405,9624,9.172015258,9,1.10E+17,1,-0.055555556,0.555555556,10,-2,2,10,1,-1,-1,chose undesirable,undesirable fac.,"(7.41e+03,2.03e+05]",FALSE,274
688,23,X8,1,0,0,1,ph,11,7,0.636363636,1157,5896,8.682029434,0,11001100111,1,0.136363636,0.636363636,4,3,3,7,1,1,1,chose desirable,desirable fac.,"(4.69e+03,7.41e+03]",FALSE,396
689,24,X8,1,1,0,0,ph,11,6,0.545454545,435,5615,8.633196867,0,11011010010,0,0.045454545,0.545454545,5,1,1,6,0,-1,1,chose desirable,undesirable fac.,"(4.69e+03,7.41e+03]",FALSE,115
690,25,X8,1,1,1,1,tv,10,6,0.6,166,5425,8.598773178,0,1000011111,1,0.1,0.6,4,2,2,6,1,1,1,chose desirable,desirable fac.,"(4.69e+03,7.41e+03]",FALSE,475
691,26,X8,0,0,1,1,ph,15,6,0.4,560,8249,9.01784726,0,1.00E+13,0,-0.1,0.6,9,-3,3,9,0,1,-1,chose undesirable,desirable fac.,"(7.41e+03,2.03e+05]",FALSE,549
692,27,X8,1,1,1,1,tv,7,6,0.857142857,687,3528,8.168486417,0,1111101,1,0.357142857,0.857142857,1,5,5,6,1,1,1,chose desirable,desirable fac.,"(3.23e+03,4.69e+03]",FALSE,228
693,28,X8,1,1,1,1,tv,5,4,0.8,587,2253,7.72001794,0,11110,1,0.3,0.8,1,3,3,4,1,1,1,chose desirable,desirable fac.,"(2.08e+03,3.23e+03]",FALSE,53
694,29,X8,0,0,1,1,ph,20,11,0.55,1726,10928,9.299083582,0,1.10E+18,0,0.05,0.45,9,2,-2,9,0,1,-1,chose undesirable,desirable fac.,"(7.41e+03,2.03e+05]",FALSE,478
